timestamp,datetime,ax,ay,az,gx,gy,gz,temp,bpm,spo2,finger_detected
1759741899.738,2025-10-06 10:11:39.737,0.075,-0.0051,0.8755,2.2824,-0.0153,-2.6412,44.91,0,,False
1759741899.886,2025-10-06 10:11:39.885,0.0691,-0.0032,0.8843,2.313,0.855,-2.7939,44.86,0,,False
1759741900.022,2025-10-06 10:11:40.022,0.0664,-0.0039,0.8667,2.4427,-0.8015,-2.6412,45.0,0,,False
1759741900.155,2025-10-06 10:11:40.154,0.071,-0.0071,0.8784,2.2824,-0.0458,-2.5649,44.91,0,,False
1759741900.301,2025-10-06 10:11:40.300,0.0706,-0.0029,0.8748,2.4351,-0.0229,-2.4809,45.09,0,,False
1759741900.433,2025-10-06 10:11:40.433,0.0693,-0.002,0.8811,2.5267,-0.0534,-2.5344,45.0,0,,False
1759741900.578,2025-10-06 10:11:40.578,0.0693,-0.0073,0.8752,2.5878,-0.0382,-2.5954,44.81,0,,False
1759741900.71,2025-10-06 10:11:40.710,0.0701,-0.0029,0.8738,2.4046,-0.0687,-2.6947,45.09,0,,False
1759741900.856,2025-10-06 10:11:40.856,0.0667,-0.0046,0.8696,2.3206,0.0992,-2.6031,45.19,0,,False
1759741900.988,2025-10-06 10:11:40.988,0.0706,-0.0046,0.8779,2.2748,-0.1603,-2.4427,45.05,0,,False
1759741901.133,2025-10-06 10:11:41.133,0.0686,-0.0061,0.8752,2.3511,-0.229,-2.7099,45.05,0,,False
1759741901.265,2025-10-06 10:11:41.265,0.0725,-0.0068,0.874,2.2748,-0.1145,-2.6107,45.05,0,,False
1759741901.397,2025-10-06 10:11:41.397,0.071,-0.0044,0.8721,2.3817,-0.0305,-2.7863,45.0,0,,False
1759741901.53,2025-10-06 10:11:41.529,0.0706,-0.0044,0.873,2.313,-0.1221,-2.7328,44.86,0,,False
1759741901.662,2025-10-06 10:11:41.662,0.0667,-0.0029,0.8833,2.2672,-0.0382,-2.5344,44.86,0,,False
1759741901.792,2025-10-06 10:11:41.791,0.0684,-0.0054,0.8887,2.3588,-0.1145,-2.6641,45.0,0,,False
1759741901.94,2025-10-06 10:11:41.940,0.0698,-0.0054,0.8752,2.458,-0.1069,-2.7328,45.0,0,,False
1759741902.073,2025-10-06 10:11:42.073,0.0662,-0.0042,0.8777,2.6641,-0.2977,-2.626,44.86,0,,False
1759741902.212,2025-10-06 10:11:42.212,0.0696,-0.0044,0.8723,2.5725,-0.1603,-2.5038,45.05,68.0,,True
1759741902.344,2025-10-06 10:11:42.343,0.074,-0.0037,0.8755,2.458,-0.0076,-2.7176,45.19,169.0,,True
1759741902.483,2025-10-06 10:11:42.483,0.0674,-0.0081,0.8733,2.4733,-0.1298,-2.6336,44.72,176.5,,True
1759741902.615,2025-10-06 10:11:42.614,0.0659,0.0,0.8782,2.4885,-0.1756,-2.458,45.24,166.0,,True
1759741902.747,2025-10-06 10:11:42.746,0.0679,-0.0032,0.8889,2.3817,-0.2137,-2.6794,45.0,162.0,,True
1759741902.886,2025-10-06 10:11:42.885,0.0691,-0.0073,0.8816,2.3588,-0.2061,-2.4427,44.91,150.0,,True
1759741903.017,2025-10-06 10:11:43.017,0.072,-0.0032,0.8813,2.313,-0.0534,-2.5878,45.0,131.25,,True
1759741903.149,2025-10-06 10:11:43.149,0.0681,-0.0054,0.8784,2.542,-0.2061,-2.5954,44.91,122.5,,True
1759741903.289,2025-10-06 10:11:43.288,0.0684,-0.0071,0.8818,2.5725,0.0992,-2.5878,45.0,111.25,,True
1759741903.42,2025-10-06 10:11:43.420,0.0737,-0.0054,0.8777,2.3817,0.0916,-2.5954,44.91,118.0,,True
1759741903.553,2025-10-06 10:11:43.553,0.0696,-0.0051,0.8782,2.4275,-0.0229,-2.6412,44.91,113.5,,True
1759741903.692,2025-10-06 10:11:43.691,0.0679,-0.0054,0.8784,2.2901,0.1298,-2.6718,45.0,120.25,,True
1759741903.823,2025-10-06 10:11:43.822,0.071,-0.0088,0.874,2.1832,0.0763,-2.5496,45.09,150.0,,True
1759741903.975,2025-10-06 10:11:43.975,0.0684,-0.0059,0.8711,2.3435,-0.1069,-2.7481,44.91,143.0,,True
1759741904.108,2025-10-06 10:11:44.107,0.071,-0.0042,0.8777,2.2595,0.1985,-2.4733,45.0,139.5,,True
1759741904.246,2025-10-06 10:11:44.245,0.0708,-0.0083,0.877,2.3893,-0.1145,-2.6641,44.91,150.0,,True
1759741904.376,2025-10-06 10:11:44.376,0.0681,-0.01,0.8723,2.4351,-0.0382,-2.5344,45.05,150.0,,True
1759741904.508,2025-10-06 10:11:44.508,0.0671,-0.0029,0.8828,2.5878,-0.1603,-2.6412,45.24,150.0,,True
1759741904.646,2025-10-06 10:11:44.646,0.0676,-0.0044,0.8765,2.2672,1.5725,-2.6336,45.05,150.0,,True
1759741904.777,2025-10-06 10:11:44.776,0.0676,-0.001,0.8748,2.1603,-0.0076,-2.6794,45.05,143.0,,True
1759741904.909,2025-10-06 10:11:44.908,0.1255,0.01,0.8708,3.5649,-1.3893,12.2214,45.0,125.5,,True
1759741905.047,2025-10-06 10:11:45.046,0.0703,-0.011,0.8789,2.6336,-0.2595,-2.5954,44.91,120.25,,True
1759741905.177,2025-10-06 10:11:45.177,0.053,0.0159,0.8557,2.458,-0.7328,0.2519,45.09,122.5,,True
1759741905.31,2025-10-06 10:11:45.309,0.0505,-0.0151,0.8809,2.4427,0.229,-2.9924,45.0,125.0,,True
1759741905.448,2025-10-06 10:11:45.447,0.072,-0.0059,0.8804,2.7557,0.145,-2.5954,45.19,113.5,,True
1759741905.579,2025-10-06 10:11:45.578,0.0728,-0.0063,0.8801,2.2214,0.1908,-2.5038,44.86,115.0,,True
1759741905.709,2025-10-06 10:11:45.708,0.0667,-0.0059,0.8855,2.7023,-0.2366,-2.6947,45.19,115.0,,True
1759741905.839,2025-10-06 10:11:45.838,0.0674,-0.0051,0.8757,2.5878,0.2748,-2.6031,45.0,120.0,,True
1759741905.978,2025-10-06 10:11:45.978,0.0674,-0.0076,0.8816,2.3511,0.0076,-2.6947,44.91,101.5,,True
1759741906.111,2025-10-06 10:11:46.110,0.0635,-0.0061,0.8762,2.4046,0.2214,-2.8168,45.24,79.25,,True
1759741906.249,2025-10-06 10:11:46.248,0.0662,-0.0042,0.8704,2.4962,0.6412,-2.542,45.09,95.0,,True
1759741906.379,2025-10-06 10:11:46.379,0.0632,-0.0059,0.8735,2.6489,0.0458,-2.7252,45.09,120.5,,True
1759741906.511,2025-10-06 10:11:46.511,0.0618,-0.0061,0.8733,2.4656,-0.1221,-2.5344,45.0,136.75,,True
1759741906.641,2025-10-06 10:11:46.641,0.0618,-0.0042,0.8809,2.0229,-0.0076,-2.5115,44.91,143.0,,True
1759741906.772,2025-10-06 10:11:46.771,0.061,-0.0083,0.8855,2.4885,0.0916,-2.6031,44.86,130.75,,True
1759741906.902,2025-10-06 10:11:46.902,0.0635,-0.0044,0.877,2.3969,0.0,-2.4885,45.24,226.75,,True
1759741907.04,2025-10-06 10:11:47.040,0.064,-0.0068,0.8804,2.4122,-0.0763,-2.4656,45.05,300.0,,True
1759741907.178,2025-10-06 10:11:47.177,0.0596,-0.0046,0.8884,2.5954,-0.2137,-2.7481,44.86,300.0,,True
1759741907.31,2025-10-06 10:11:47.309,0.0618,-0.0076,0.8818,2.5649,-0.5573,-2.6718,44.81,275.0,,True
1759741907.448,2025-10-06 10:11:47.447,0.0623,-0.0039,0.8726,2.2824,3.6641,-2.626,45.05,275.0,,True
1759741907.578,2025-10-06 10:11:47.578,0.0554,-0.0039,0.8867,2.542,-0.1603,-2.4351,45.0,262.5,,True
1759741907.71,2025-10-06 10:11:47.710,0.0525,-0.0037,0.864,2.5649,0.2595,-2.6183,45.0,275.0,,True
1759741907.848,2025-10-06 10:11:47.848,0.0579,-0.0056,0.885,2.4809,-0.1069,-2.2901,44.86,250.0,,True
1759741907.981,2025-10-06 10:11:47.980,0.0557,-0.0029,0.8831,2.4046,-0.1985,-2.542,45.24,250.0,,True
1759741908.119,2025-10-06 10:11:48.118,0.0557,-0.0093,0.877,2.5649,-0.1145,-2.7176,45.05,250.0,,True
1759741908.249,2025-10-06 10:11:48.249,0.0515,-0.0037,0.8809,2.2901,-0.0992,-2.7557,45.0,300.0,,True
1759741908.382,2025-10-06 10:11:48.381,0.0601,-0.0059,0.8787,2.2214,-0.3435,-2.6107,44.81,300.0,,True
1759741908.52,2025-10-06 10:11:48.519,0.0586,-0.0034,0.8809,2.5038,-0.1756,-2.5802,44.81,300.0,,True
1759741908.651,2025-10-06 10:11:48.651,0.0581,-0.0029,0.8716,2.3359,-0.2977,-2.8473,44.86,300.0,,True
1759741908.784,2025-10-06 10:11:48.783,0.0583,-0.0073,0.8843,2.2672,-0.1832,-2.6412,45.0,300.0,,True
1759741908.923,2025-10-06 10:11:48.923,0.0564,-0.0073,0.8748,2.5725,-0.1069,-2.687,44.86,300.0,,True
1759741909.055,2025-10-06 10:11:49.055,0.0535,-0.0073,0.8772,2.3359,-0.2366,-2.855,44.91,300.0,,True
1759741909.187,2025-10-06 10:11:49.187,0.0583,-0.0063,0.8826,2.3588,0.0,-2.5725,45.09,262.5,,True
1759741909.327,2025-10-06 10:11:49.326,0.0588,-0.0039,0.8713,2.5344,0.1221,-2.5191,44.91,232.0,,True
1759741909.459,2025-10-06 10:11:49.458,0.0586,-0.0046,0.8772,2.145,0.0611,-2.8473,44.81,250.0,,True
1759741909.599,2025-10-06 10:11:49.598,0.0608,-0.009,0.8809,2.4122,-0.145,-2.5649,45.05,250.0,,True
1759741909.73,2025-10-06 10:11:49.730,0.0557,-0.0056,0.8826,2.6336,-0.0611,-2.6641,45.0,187.0,,True
1759741909.862,2025-10-06 10:11:49.862,0.0591,-0.0059,0.8787,2.2824,-0.0916,-2.7481,45.09,146.0,,True
1759741910.012,2025-10-06 10:11:50.012,0.0559,-0.0085,0.8777,2.374,-0.0687,-2.7176,45.0,122.5,,True
1759741910.144,2025-10-06 10:11:50.144,0.0586,-0.0034,0.8777,2.3817,-0.1832,-2.771,45.24,115.0,,True
1759741910.284,2025-10-06 10:11:50.283,0.0574,-0.0078,0.8872,2.4427,-0.0076,-2.6718,45.05,115.0,,True
1759741910.416,2025-10-06 10:11:50.415,0.0559,-0.0051,0.8762,2.3817,-0.0076,-2.6107,45.0,100.0,,True
1759741910.548,2025-10-06 10:11:50.547,0.0571,-0.0039,0.8782,2.5115,-0.2977,-2.7939,44.86,100.0,,True
1759741910.687,2025-10-06 10:11:50.686,0.0737,-0.0044,0.8782,2.855,-3.5267,-2.1679,45.0,100.0,,True
1759741910.819,2025-10-06 10:11:50.818,0.0669,-0.0073,0.8813,2.374,-0.1374,-2.5038,44.72,92.75,,True
1759741910.958,2025-10-06 10:11:50.958,0.0605,-0.0029,0.8794,2.8626,-6.1527,-2.8779,45.0,109.0,,True
1759741911.09,2025-10-06 10:11:51.089,0.053,-0.0059,0.885,2.7252,-5.0916,-2.8779,45.0,141.75,,True
1759741911.222,2025-10-06 10:11:51.222,0.0227,-0.001,0.8699,4.8931,-3.8779,24.687,44.91,193.75,,True
1759741911.361,2025-10-06 10:11:51.361,-0.0115,-0.01,0.9182,2.3435,3.3969,-10.4198,45.0,200.5,,True
1759741911.493,2025-10-06 10:11:51.493,0.0564,-0.0103,0.8862,3.0076,-22.3664,3.2595,45.05,136.75,,True
1759741911.625,2025-10-06 10:11:51.625,0.0732,-0.0056,0.8792,2.2824,-0.9542,-2.771,45.05,155.75,,True
1759741911.765,2025-10-06 10:11:51.764,0.0791,-0.0066,0.8757,2.9847,1.2519,-2.6412,45.24,162.0,,True
1759741911.896,2025-10-06 10:11:51.896,0.0884,-0.0146,0.8455,2.6794,1.771,-2.6183,45.24,139.5,,True
1759741912.045,2025-10-06 10:11:52.045,0.0745,-0.0061,0.8784,2.145,-1.1679,-2.5878,45.09,136.0,,True
1759741912.177,2025-10-06 10:11:52.177,0.0784,-0.0085,0.8748,2.4733,-0.374,-2.8855,45.09,136.0,,True
1759741912.317,2025-10-06 10:11:52.316,0.0688,-0.0039,0.8835,2.1603,-1.6641,-2.7099,44.91,130.75,,True
1759741912.449,2025-10-06 10:11:52.448,0.0742,-0.0171,0.8792,2.8244,1.0229,-2.6718,45.05,115.0,,True
1759741912.581,2025-10-06 10:11:52.580,0.071,-0.0022,0.8757,2.458,0.5496,-2.7634,45.0,120.0,,True
1759741912.72,2025-10-06 10:11:52.719,0.0696,-0.0088,0.8794,2.1985,-0.5038,-2.7481,45.09,122.5,,True
1759741912.852,2025-10-06 10:11:52.851,0.0696,-0.0085,0.8918,1.7634,-0.1985,-2.7099,45.0,125.0,,True
1759741912.985,2025-10-06 10:11:52.984,0.0637,-0.0076,0.8809,2.0458,-0.3282,-2.5267,45.09,122.5,,True
1759741913.116,2025-10-06 10:11:53.115,0.0701,-0.0085,0.8811,1.7328,0.7023,-2.6183,45.05,115.0,,True
1759741913.247,2025-10-06 10:11:53.247,0.0723,-0.0083,0.8821,1.1527,2.4122,-2.5954,45.24,115.0,,True
1759741913.379,2025-10-06 10:11:53.378,0.0696,-0.0125,0.8799,2.6718,0.771,-2.5115,44.91,115.0,,True
1759741913.51,2025-10-06 10:11:53.510,0.0662,-0.0095,0.8813,2.0687,1.5878,-2.5267,45.19,109.0,,True
1759741913.641,2025-10-06 10:11:53.641,0.0696,-0.009,0.8774,2.9924,-0.3817,-2.6565,44.81,107.0,,True
1759741913.773,2025-10-06 10:11:53.772,0.0706,-0.01,0.8821,2.6794,-0.3282,-2.6183,45.19,109.0,,True
1759741913.904,2025-10-06 10:11:53.903,0.0649,-0.0071,0.8767,2.2061,-0.0687,-2.458,45.05,111.0,,True
1759741914.036,2025-10-06 10:11:54.035,0.0681,-0.011,0.875,2.6565,0.0916,-2.7786,45.05,107.0,,True
1759741914.175,2025-10-06 10:11:54.175,0.0676,-0.0088,0.8853,1.8779,0.374,-2.5802,45.05,107.0,,True
1759741914.307,2025-10-06 10:11:54.307,0.064,-0.0107,0.8796,2.3511,0.5038,-2.4656,45.05,114.25,,True
1759741914.446,2025-10-06 10:11:54.446,0.0647,-0.0066,0.8835,2.2061,0.4046,-2.1679,45.19,136.0,,True
1759741914.578,2025-10-06 10:11:54.577,0.0659,-0.0095,0.8752,2.6489,-0.6336,-2.6031,44.86,136.0,,True
1759741914.717,2025-10-06 10:11:54.716,0.0647,-0.0098,0.8801,2.5115,-0.0916,-2.6794,45.09,136.0,,True
1759741914.848,2025-10-06 10:11:54.848,0.0645,-0.0076,0.8823,2.5496,-0.3359,-2.5725,45.05,136.0,,True
1759741914.981,2025-10-06 10:11:54.980,0.0667,-0.011,0.8811,2.374,-0.7328,-2.8244,45.0,136.0,,True
1759741915.12,2025-10-06 10:11:55.119,0.0659,-0.009,0.8813,2.6031,0.5115,-2.6641,45.19,136.0,,True
1759741915.251,2025-10-06 10:11:55.251,0.061,-0.0093,0.876,2.4656,-0.7176,-2.7557,45.0,88.0,,True
1759741915.384,2025-10-06 10:11:55.383,0.0703,-0.0093,0.8774,2.5878,-0.2137,-2.7328,45.05,88.0,,True
1759741915.523,2025-10-06 10:11:55.522,0.0657,-0.0105,0.8755,2.5725,0.1069,-2.5649,45.09,88.0,,True
1759741915.654,2025-10-06 10:11:55.653,0.0657,-0.0146,0.8857,2.1374,0.2977,-2.6565,45.24,88.0,,True
1759741915.785,2025-10-06 10:11:55.785,0.0664,-0.0117,0.8816,2.1221,0.9618,-2.4504,45.24,88.0,,True
1759741915.916,2025-10-06 10:11:55.916,0.0603,-0.0103,0.8835,2.1679,1.229,-2.855,45.24,88.0,,True
1759741916.048,2025-10-06 10:11:56.048,0.0588,-0.0117,0.8826,3.2137,-0.2901,-2.916,45.05,88.0,,True
1759741916.179,2025-10-06 10:11:56.179,0.0574,-0.0117,0.8804,2.6947,-0.2519,-2.8092,45.09,88.0,,True
1759741916.312,2025-10-06 10:11:56.311,0.0608,-0.0071,0.8801,2.4733,-0.4275,-2.4809,45.38,83.75,,True
1759741916.452,2025-10-06 10:11:56.451,0.0635,-0.0083,0.8853,1.9618,0.3588,-2.7176,45.0,88.0,,True
1759741916.584,2025-10-06 10:11:56.583,0.0632,-0.0088,0.8845,1.9771,-0.2519,-2.6336,45.09,115.0,,True
1759741916.723,2025-10-06 10:11:56.723,0.0618,-0.0105,0.8752,2.313,-0.0611,-2.6718,45.09,115.0,,True
1759741916.855,2025-10-06 10:11:56.854,0.062,-0.0095,0.8884,2.2595,-0.6336,-2.4733,45.09,115.0,,True
1759741916.994,2025-10-06 10:11:56.994,0.0662,-0.01,0.8806,1.9771,0.5191,-2.4427,44.86,115.0,,True
1759741917.126,2025-10-06 10:11:57.126,0.0615,-0.0117,0.8684,2.2519,-0.3588,-2.374,45.24,141.25,,True
1759741917.258,2025-10-06 10:11:57.258,0.0642,-0.0078,0.8792,2.1603,-0.0534,-2.8015,45.38,150.0,,True
1759741917.398,2025-10-06 10:11:57.398,0.0635,-0.0103,0.8818,2.687,-0.5191,-2.7481,44.91,150.0,,True
1759741917.53,2025-10-06 10:11:57.530,0.0596,-0.0115,0.8799,2.0916,0.2443,-2.458,45.38,146.5,,True
1759741917.662,2025-10-06 10:11:57.662,0.0657,-0.0134,0.8794,2.9237,-0.4656,-2.4351,45.24,136.0,,True
1759741917.802,2025-10-06 10:11:57.801,0.0596,-0.0149,0.8784,2.3053,-0.084,-2.6183,45.0,136.0,,True
1759741917.933,2025-10-06 10:11:57.933,0.063,-0.0107,0.8772,2.2748,0.0458,-2.6489,45.05,130.5,,True
1759741918.082,2025-10-06 10:11:58.082,0.0635,-0.0129,0.8789,2.7176,-0.229,-2.7023,45.0,125.0,,True
1759741918.215,2025-10-06 10:11:58.214,0.0667,-0.0085,0.8765,2.2366,0.771,-2.626,45.0,125.0,,True
1759741918.354,2025-10-06 10:11:58.353,0.0647,-0.0088,0.8806,2.3893,-0.1679,-2.6641,45.33,76.25,,True
1759741918.485,2025-10-06 10:11:58.485,0.0583,-0.0088,0.877,2.5878,-0.1679,-2.6031,45.05,57.0,,True
1759741918.617,2025-10-06 10:11:58.617,0.0593,-0.0095,0.8767,2.2214,0.0382,-2.7405,45.09,54.0,,True
1759741918.756,2025-10-06 10:11:58.756,0.0613,-0.0071,0.876,2.229,0.3053,-2.6718,45.05,52.0,,True
1759741918.888,2025-10-06 10:11:58.887,0.0623,-0.009,0.8843,2.2443,0.0153,-2.7099,45.05,63.75,,True
1759741919.02,2025-10-06 10:11:59.019,0.0598,-0.0125,0.8765,2.3053,0.1374,-2.4427,45.24,58.75,,True
1759741919.159,2025-10-06 10:11:59.159,0.0642,-0.011,0.8804,2.5344,-0.1603,-2.5267,45.24,50.5,,True
1759741919.29,2025-10-06 10:11:59.290,0.0603,-0.0142,0.8787,2.6031,-0.2214,-2.771,45.0,62.0,,True
1759741919.423,2025-10-06 10:11:59.422,0.0581,-0.0093,0.8828,2.1832,0.0687,-2.5573,45.05,56.0,,True
1759741919.562,2025-10-06 10:11:59.561,0.0613,-0.0081,0.8789,2.0916,-0.1145,-2.8168,45.09,64.25,,True
1759741919.693,2025-10-06 10:11:59.692,0.0608,-0.0083,0.8811,2.3664,-0.2366,-2.626,45.0,96.25,,True
1759741919.825,2025-10-06 10:11:59.825,0.0627,-0.0117,0.8755,2.2672,-0.5496,-2.5344,45.05,171.25,,True
1759741919.949,2025-10-06 10:11:59.949,0.062,-0.0132,0.8757,2.6336,-0.2901,-2.687,45.09,176.5,,True
1759741920.098,2025-10-06 10:12:00.098,0.0642,-0.0076,0.8765,2.2672,0.0916,-2.6031,45.09,171.25,,True
1759741920.237,2025-10-06 10:12:00.237,0.0667,-0.0127,0.8728,2.1832,-0.4122,-2.7099,45.33,166.0,,True
1759741920.369,2025-10-06 10:12:00.368,0.0642,-0.0132,0.8726,2.6489,-0.7023,-2.8092,45.0,154.0,,True
1759741920.5,2025-10-06 10:12:00.499,0.0642,-0.0103,0.874,2.1298,0.4809,-2.6565,45.0,166.0,,True
1759741920.631,2025-10-06 10:12:00.631,0.0627,-0.0085,0.8757,2.7405,-0.145,-2.8397,45.0,166.0,,True
1759741920.771,2025-10-06 10:12:00.770,0.0618,-0.0103,0.8845,2.3817,-0.1756,-2.4427,45.19,140.5,,True
1759741920.903,2025-10-06 10:12:00.902,0.0635,-0.0098,0.8794,2.4351,-0.1908,-2.6107,45.24,140.5,,True
1759741921.043,2025-10-06 10:12:01.043,0.0637,-0.0056,0.8767,2.687,-0.6489,-2.4504,45.0,166.0,,True
1759741921.175,2025-10-06 10:12:01.174,0.0662,-0.0095,0.8745,2.5573,0.1908,-2.7634,45.09,166.0,,True
1759741921.306,2025-10-06 10:12:01.305,0.0637,-0.0085,0.8733,2.2748,0.2061,-2.7405,45.05,166.0,,True
1759741921.437,2025-10-06 10:12:01.437,0.0642,-0.0115,0.8821,2.3817,-0.0687,-2.5954,45.38,181.75,,True
1759741921.568,2025-10-06 10:12:01.568,0.0662,-0.0125,0.8777,1.9847,0.4046,-2.6794,45.05,187.0,,True
1759741921.7,2025-10-06 10:12:01.699,0.0671,-0.0103,0.8848,2.145,0.1832,-2.374,45.05,187.0,,True
1759741921.831,2025-10-06 10:12:01.830,0.064,-0.0088,0.8774,2.9008,-0.3282,-2.5191,44.91,187.0,,True
1759741921.962,2025-10-06 10:12:01.961,0.0662,-0.0137,0.875,2.3969,-0.3359,-2.542,44.91,187.0,,True
1759741922.095,2025-10-06 10:12:02.094,0.0659,-0.0088,0.8752,2.5573,-0.1145,-2.2366,45.0,166.0,,True
1759741922.234,2025-10-06 10:12:02.233,0.0632,-0.0068,0.877,2.5496,-0.3588,-2.7405,45.05,166.0,,True
1759741922.365,2025-10-06 10:12:02.365,0.0664,-0.0112,0.8806,2.4809,0.0305,-2.687,45.19,171.25,,True
1759741922.496,2025-10-06 10:12:02.495,0.0684,-0.0117,0.8794,2.4351,-0.0382,-2.6107,45.05,169.0,,True
1759741922.635,2025-10-06 10:12:02.634,0.0686,-0.0093,0.8792,2.626,-0.4198,-2.7939,45.19,132.5,,True
1759741922.766,2025-10-06 10:12:02.766,0.0647,-0.0134,0.8694,2.4504,-0.0534,-2.5267,44.86,96.0,,True
1759741922.898,2025-10-06 10:12:02.898,0.0676,-0.0068,0.8782,2.4046,-0.1298,-2.5573,45.05,71.0,,True
1759741923.03,2025-10-06 10:12:03.029,0.064,-0.0144,0.875,2.4733,-0.0916,-2.9237,45.24,81.0,,True
1759741923.164,2025-10-06 10:12:03.163,0.0698,-0.0088,0.8657,2.9313,-0.0992,-2.5496,44.86,72.0,,True
1759741923.298,2025-10-06 10:12:03.298,0.0662,-0.0056,0.8787,2.3511,-0.2443,-2.5344,45.24,75.0,,True
1759741923.437,2025-10-06 10:12:03.436,0.064,-0.0134,0.8745,2.3053,0.1145,-2.4275,45.09,81.0,,True
1759741923.567,2025-10-06 10:12:03.567,0.064,-0.0115,0.8816,2.4656,-0.2519,-2.7634,45.24,93.5,,True
1759741923.7,2025-10-06 10:12:03.699,0.0632,-0.0115,0.8799,2.1985,0.3282,-2.5573,45.09,88.0,,True
1759741923.838,2025-10-06 10:12:03.837,0.0645,-0.0107,0.8767,2.4809,-0.2061,-2.5038,45.24,97.0,,True
1759741923.968,2025-10-06 10:12:03.968,0.0684,-0.0098,0.8794,2.542,-0.2443,-2.771,45.0,96.5,,True
1759741924.1,2025-10-06 10:12:04.099,0.0674,-0.0105,0.8801,2.542,-0.2443,-2.3435,44.91,103.5,,True
1759741924.238,2025-10-06 10:12:04.237,0.0637,-0.009,0.8801,2.3588,-0.1069,-2.687,45.0,111.5,,True
1759741924.368,2025-10-06 10:12:04.368,0.0667,-0.01,0.8796,2.3206,-0.2443,-2.7252,45.09,120.0,,True
1759741924.5,2025-10-06 10:12:04.500,0.0632,-0.0132,0.873,2.3435,-0.0534,-2.5496,45.19,216.25,,True
1759741924.638,2025-10-06 10:12:04.638,0.063,-0.0078,0.8848,2.1985,0.3588,-2.6794,45.09,250.0,,True
1759741924.769,2025-10-06 10:12:04.768,0.0654,-0.0107,0.8772,2.4962,-0.2672,-2.7405,45.24,250.0,,True
1759741924.901,2025-10-06 10:12:04.900,0.0671,-0.0078,0.8789,2.3817,0.2137,-2.5573,45.24,250.0,,True
1759741925.039,2025-10-06 10:12:05.038,0.0627,-0.0098,0.8782,2.4885,-0.687,-2.5725,45.0,250.0,,True
1759741925.169,2025-10-06 10:12:05.169,0.0669,-0.0107,0.8811,2.7634,-0.2824,-2.6489,45.0,250.0,,True
1759741925.301,2025-10-06 10:12:05.301,0.0671,-0.0105,0.8782,2.1221,0.1145,-2.7023,45.19,250.0,,True
1759741925.439,2025-10-06 10:12:05.439,0.0679,-0.0078,0.8806,2.626,-0.0916,-2.6107,45.38,250.0,,True
1759741925.57,2025-10-06 10:12:05.569,0.0649,-0.0051,0.8743,2.3969,-0.2977,-2.5496,45.24,223.0,,True
1759741925.702,2025-10-06 10:12:05.701,0.0645,-0.0134,0.8826,2.6718,-0.4351,-2.6947,45.33,207.25,,True
1759741925.84,2025-10-06 10:12:05.839,0.0696,-0.01,0.8835,2.229,0.145,-2.5191,45.0,187.0,,True
1759741925.97,2025-10-06 10:12:05.970,0.0674,-0.01,0.8718,2.4122,-0.2137,-2.458,45.38,150.0,,True
1759741926.111,2025-10-06 10:12:06.111,0.064,-0.009,0.8806,2.3053,0.0305,-2.8855,45.19,150.0,,True
1759741926.241,2025-10-06 10:12:06.241,0.0693,-0.0085,0.8809,2.2595,-0.2061,-2.6031,45.09,151.75,,True
1759741926.379,2025-10-06 10:12:06.379,0.0571,-0.0085,0.8828,2.6565,0.1908,-2.4962,45.09,107.25,,True
1759741926.517,2025-10-06 10:12:06.517,0.0701,-0.0088,0.8792,2.7405,-0.2214,-2.7328,45.05,84.75,,True
1759741926.648,2025-10-06 10:12:06.647,0.0659,-0.0107,0.8818,2.2137,-0.2595,-2.6794,45.0,139.25,,True
1759741926.78,2025-10-06 10:12:06.779,0.061,-0.0095,0.8806,2.2672,-0.1985,-2.7481,45.05,100.0,,True
1759741926.918,2025-10-06 10:12:06.917,0.064,-0.0095,0.8784,2.1832,0.1298,-2.7786,45.24,147.75,,True
1759741927.048,2025-10-06 10:12:07.047,0.0676,-0.0103,0.8755,1.9771,0.1908,-2.7786,45.09,150.0,,True
1759741927.178,2025-10-06 10:12:07.177,0.0676,-0.0081,0.8833,2.2061,-0.0458,-2.4504,45.09,168.5,,True
1759741927.316,2025-10-06 10:12:07.315,0.0674,-0.0063,0.8865,2.7023,0.1908,-2.6031,45.38,176.5,,True
1759741927.446,2025-10-06 10:12:07.445,0.0623,-0.0132,0.8777,2.3969,-0.4122,-2.5802,45.0,188.25,,True
1759741927.578,2025-10-06 10:12:07.578,0.0684,-0.0127,0.877,2.1603,0.2748,-2.7099,44.91,250.0,,True
1759741927.716,2025-10-06 10:12:07.715,0.0635,-0.01,0.8843,2.3359,-0.1221,-2.3511,45.0,250.0,,True
1759741927.846,2025-10-06 10:12:07.846,0.0662,-0.0078,0.8787,2.0305,0.3435,-2.5878,45.09,241.0,,True
1759741927.978,2025-10-06 10:12:07.978,0.0645,-0.0105,0.8804,2.313,-0.3664,-2.5344,45.33,250.0,,True
1759741928.127,2025-10-06 10:12:08.126,0.0632,-0.0132,0.8823,2.4809,-0.0992,-2.6641,45.09,275.0,,True
1759741928.259,2025-10-06 10:12:08.258,0.0681,-0.0105,0.8872,2.374,-0.3817,-2.8015,45.09,262.5,,True
1759741928.398,2025-10-06 10:12:08.398,0.0608,-0.0132,0.8752,2.3511,0.0305,-2.6565,45.24,287.5,,True
1759741928.53,2025-10-06 10:12:08.529,0.0662,-0.0107,0.8765,2.3588,-0.1374,-2.5344,45.24,300.0,,True
1759741928.669,2025-10-06 10:12:08.668,0.0667,-0.0127,0.884,2.3511,-0.0534,-2.7023,45.24,300.0,,True
1759741928.8,2025-10-06 10:12:08.800,0.0635,-0.01,0.8784,2.3969,-0.0153,-2.5954,45.24,300.0,,True
1759741928.933,2025-10-06 10:12:08.932,0.0635,-0.0105,0.8843,2.2519,-0.1603,-2.5496,45.09,300.0,,True
1759741929.072,2025-10-06 10:12:09.071,0.064,-0.0139,0.8862,2.1603,0.1679,-2.6641,44.91,300.0,,True
1759741929.203,2025-10-06 10:12:09.203,0.0642,-0.012,0.8794,2.7481,-0.2366,-2.5115,45.38,300.0,,True
1759741929.336,2025-10-06 10:12:09.335,0.0679,-0.0115,0.8787,2.4275,-0.0534,-2.5344,45.24,300.0,,True
1759741929.476,2025-10-06 10:12:09.475,0.0635,-0.0095,0.8716,2.3969,0.0,-2.6183,45.19,300.0,,True
1759741929.607,2025-10-06 10:12:09.607,0.0688,-0.0095,0.8838,2.5038,-0.2214,-2.3893,45.24,300.0,,True
1759741929.74,2025-10-06 10:12:09.739,0.0669,-0.0093,0.8767,2.6107,-0.2977,-2.6718,45.33,300.0,,True
1759741929.879,2025-10-06 10:12:09.878,0.0696,-0.0149,0.8765,2.2901,-0.084,-2.6718,45.09,243.5,,True
1759741930.01,2025-10-06 10:12:10.010,0.0659,-0.0122,0.8784,2.5954,-0.4046,-2.6641,45.09,187.0,,True
1759741930.153,2025-10-06 10:12:10.153,0.0679,-0.0098,0.8801,2.1985,-0.0153,-2.5649,45.24,187.0,,True
1759741930.285,2025-10-06 10:12:10.284,0.0627,-0.0132,0.8779,2.3817,-0.0153,-2.7176,45.05,187.0,,True
1759741930.416,2025-10-06 10:12:10.416,0.0649,-0.0103,0.8777,2.4885,-0.229,-2.7786,45.38,187.0,,True
1759741930.555,2025-10-06 10:12:10.555,0.0688,-0.0098,0.8831,2.6947,-0.1908,-2.6183,45.09,200.5,,True
1759741930.687,2025-10-06 10:12:10.686,0.0674,-0.009,0.8806,2.5573,-0.2824,-2.7099,45.09,193.75,,True
1759741930.818,2025-10-06 10:12:10.818,0.0679,-0.0156,0.8777,2.313,-0.1298,-2.8321,45.0,209.5,,True
1759741930.949,2025-10-06 10:12:10.949,0.0662,-0.0112,0.8752,2.3359,-0.0153,-2.855,45.09,214.0,,True
1759741931.081,2025-10-06 10:12:11.080,0.0652,-0.0098,0.8772,2.5954,-0.145,-2.6718,45.0,214.0,,True
1759741931.212,2025-10-06 10:12:11.212,0.0647,-0.0146,0.8767,2.2214,0.3817,-2.6107,45.09,214.0,,True
1759741931.336,2025-10-06 10:12:11.336,0.0625,-0.0115,0.8772,2.5878,-0.3588,-2.3511,45.24,178.0,,True
1759741931.471,2025-10-06 10:12:11.471,0.0667,-0.0093,0.8813,2.4275,-0.3817,-2.5725,45.0,162.0,,True
1759741931.601,2025-10-06 10:12:11.601,0.0664,-0.01,0.8716,2.6183,-0.0458,-2.7328,45.0,177.75,,True
1759741931.732,2025-10-06 10:12:11.731,0.0681,-0.0115,0.876,2.5267,0.0229,-2.7863,45.19,187.0,,True
1759741931.862,2025-10-06 10:12:11.861,0.0696,-0.0112,0.876,2.2977,-0.0992,-2.6794,45.09,181.75,,True
1759741931.992,2025-10-06 10:12:11.991,0.0635,-0.0083,0.8721,2.5038,0.5267,-2.6489,44.91,166.0,,True
1759741932.122,2025-10-06 10:12:12.122,0.064,-0.012,0.8723,2.3435,0.0916,-2.542,45.24,166.0,,True
1759741932.254,2025-10-06 10:12:12.254,0.0632,-0.0083,0.877,2.6336,-0.7252,-2.5954,45.09,166.0,,True
1759741932.392,2025-10-06 10:12:12.392,0.0686,-0.0144,0.8828,2.3435,-0.0916,-2.6183,45.09,151.0,,True
1759741932.523,2025-10-06 10:12:12.522,0.0664,-0.0137,0.8765,2.2977,-0.0611,-2.4198,45.09,125.5,,True
1759741932.652,2025-10-06 10:12:12.652,0.0691,-0.0115,0.8752,2.313,0.0,-2.4656,45.24,115.0,,True
1759741932.782,2025-10-06 10:12:12.781,0.0649,-0.0112,0.8767,2.3511,-0.1603,-2.5573,45.24,111.25,,True
1759741932.912,2025-10-06 10:12:12.911,0.0681,-0.011,0.8806,2.6489,0.1756,-2.7786,45.0,110.75,,True
1759741933.043,2025-10-06 10:12:13.042,0.0696,-0.0071,0.8865,2.6183,-0.458,-2.6107,45.24,131.25,,True
1759741933.177,2025-10-06 10:12:13.176,0.0681,-0.0071,0.8733,2.7176,-0.0534,-2.5038,45.24,150.0,,True
1759741933.307,2025-10-06 10:12:13.306,0.0684,-0.0115,0.8745,1.9466,-0.2748,-2.6107,45.05,150.0,,True
1759741933.446,2025-10-06 10:12:13.445,0.0667,-0.01,0.8799,2.3435,-0.374,-2.5725,44.91,133.0,,True
1759741933.578,2025-10-06 10:12:13.577,0.0649,-0.0112,0.8811,2.6031,-0.2519,-2.5649,45.19,139.25,,True
1759741933.716,2025-10-06 10:12:13.715,0.0667,-0.01,0.8799,2.5344,-0.0305,-2.626,45.09,154.0,,True
1759741933.846,2025-10-06 10:12:13.846,0.0674,-0.0103,0.8779,2.1069,-0.0916,-2.4198,45.24,154.0,,True
1759741933.978,2025-10-06 10:12:13.978,0.0657,-0.0122,0.8735,2.6718,-0.084,-2.4656,45.05,166.0,,True
1759741934.116,2025-10-06 10:12:14.116,0.0649,-0.0134,0.8792,2.1756,-0.0763,-2.8473,45.33,166.0,,True
1759741934.246,2025-10-06 10:12:14.246,0.0662,-0.0112,0.877,2.4733,0.229,-2.4962,45.38,166.0,,True
1759741934.387,2025-10-06 10:12:14.386,0.0654,-0.0098,0.8784,2.6107,-0.374,-2.771,45.33,166.0,,True
1759741934.525,2025-10-06 10:12:14.525,0.0637,-0.01,0.8818,2.4427,-0.0916,-2.5038,45.33,176.5,,True
1759741934.655,2025-10-06 10:12:14.655,0.0647,-0.01,0.8826,2.084,0.0687,-2.7328,45.33,187.0,,True
1759741934.793,2025-10-06 10:12:14.793,0.0647,-0.0107,0.8745,2.7252,-0.2977,-2.8015,45.09,193.75,,True
1759741934.924,2025-10-06 10:12:14.924,0.0615,-0.011,0.8777,2.5802,0.1603,-2.771,45.05,214.0,,True
1759741935.056,2025-10-06 10:12:15.056,0.0649,-0.0127,0.8821,2.2595,0.3969,-2.9389,45.24,214.0,,True
1759741935.194,2025-10-06 10:12:15.194,0.0684,-0.0095,0.873,2.4962,-0.1374,-2.6336,45.33,214.0,,True
1759741935.325,2025-10-06 10:12:15.324,0.0647,-0.0115,0.8855,2.4122,-0.1221,-2.4427,45.19,146.5,,True
1759741935.457,2025-10-06 10:12:15.456,0.0676,-0.0115,0.8694,2.2748,0.1221,-2.7634,45.19,154.0,,True
1759741935.595,2025-10-06 10:12:15.595,0.0642,-0.0144,0.876,2.3053,0.2443,-2.5649,45.0,166.0,,True
1759741935.725,2025-10-06 10:12:15.725,0.0686,-0.009,0.8892,2.4198,-0.0305,-2.771,45.24,158.5,,True
1759741935.857,2025-10-06 10:12:15.857,0.0691,-0.0054,0.8799,2.5878,-0.458,-2.771,45.24,136.0,,True
1759741935.996,2025-10-06 10:12:15.995,0.0657,-0.0122,0.8799,2.4656,-0.0382,-2.6489,45.24,134.25,,True
1759741936.126,2025-10-06 10:12:16.126,0.0684,-0.0129,0.8765,2.2977,0.0687,-2.626,45.19,177.75,,True
1759741936.256,2025-10-06 10:12:16.256,0.0647,-0.0115,0.8809,2.4198,0.0,-2.6031,45.09,187.0,,True
1759741936.388,2025-10-06 10:12:16.387,0.0676,-0.0093,0.8799,2.6183,-0.2061,-2.7023,45.24,187.0,,True
1759741936.528,2025-10-06 10:12:16.527,0.0664,-0.0081,0.8811,2.458,-0.374,-2.6565,45.05,155.75,,True
1759741936.667,2025-10-06 10:12:16.666,0.0652,-0.01,0.8752,2.542,-0.0611,-2.6565,45.09,124.5,,True
1759741936.799,2025-10-06 10:12:16.798,0.0676,-0.0129,0.8784,2.3664,-0.0992,-2.7481,45.19,151.0,,True
1759741936.929,2025-10-06 10:12:16.928,0.0654,-0.009,0.8787,2.374,-0.2214,-2.3893,45.05,136.0,,True
1759741937.068,2025-10-06 10:12:17.068,0.0681,-0.0127,0.8782,2.3588,-0.1756,-2.4885,44.81,136.0,,True
1759741937.2,2025-10-06 10:12:17.199,0.0681,-0.0081,0.8843,2.2595,0.1603,-2.7176,45.24,162.0,,True
1759741937.332,2025-10-06 10:12:17.331,0.0696,-0.0098,0.8833,2.8092,-0.3053,-2.5649,45.0,150.0,,True
1759741937.472,2025-10-06 10:12:17.472,0.0698,-0.011,0.8818,2.5573,-0.1145,-2.8855,45.09,146.5,,True
1759741937.607,2025-10-06 10:12:17.606,0.0725,-0.0112,0.8792,2.084,0.1145,-2.7176,45.05,148.75,,True
1759741937.737,2025-10-06 10:12:17.737,0.0708,-0.0137,0.876,2.3282,-0.1679,-2.6031,45.09,187.0,,True
1759741937.867,2025-10-06 10:12:17.866,0.0662,-0.0117,0.876,2.6565,-0.3664,-2.626,45.05,193.75,,True
1759741937.997,2025-10-06 10:12:17.996,0.0693,-0.0103,0.8838,2.5802,0.0,-2.5496,45.24,207.25,,True
1759741938.127,2025-10-06 10:12:18.127,0.0696,-0.0066,0.8757,2.2595,0.0076,-2.5267,45.33,187.0,,True
1759741938.257,2025-10-06 10:12:18.257,0.0649,-0.0137,0.8823,2.4504,-0.2366,-2.5802,45.0,177.75,,True
1759741938.397,2025-10-06 10:12:18.396,0.0684,-0.0085,0.8865,2.5115,-0.458,-2.5725,45.19,150.0,,True
1759741938.527,2025-10-06 10:12:18.527,0.0688,-0.0095,0.8794,2.5725,-0.3206,-2.6336,45.38,150.0,,True
1759741938.659,2025-10-06 10:12:18.659,0.0698,-0.0073,0.8748,2.3359,0.3053,-2.6565,45.09,143.0,,True
1759741938.797,2025-10-06 10:12:18.797,0.0688,-0.0093,0.8804,2.1679,-0.0534,-2.6565,45.09,85.0,,True
1759741938.928,2025-10-06 10:12:18.927,0.0664,-0.0083,0.8784,2.4122,-0.1145,-2.7939,45.33,70.5,,True
1759741939.066,2025-10-06 10:12:19.065,0.0667,-0.0085,0.8774,2.3893,-0.0458,-2.8855,44.86,52.0,,True
1759741939.196,2025-10-06 10:12:19.196,0.0698,-0.0081,0.8755,2.4504,0.0,-2.8015,45.24,54.0,,True
1759741939.328,2025-10-06 10:12:19.328,0.0659,-0.011,0.8809,2.4046,0.0382,-2.7252,45.24,47.0,,True
1759741939.467,2025-10-06 10:12:19.466,0.0635,-0.009,0.8833,2.3053,-0.1603,-2.6565,45.57,44.5,,True
1759741939.597,2025-10-06 10:12:19.597,0.0652,-0.0093,0.8757,2.4809,0.0458,-2.5954,45.19,48.5,,True
1759741939.726,2025-10-06 10:12:19.726,0.0688,-0.0117,0.8711,2.1679,-0.1985,-2.7405,45.09,53.75,,True
1759741939.856,2025-10-06 10:12:19.856,0.0642,-0.0154,0.8804,2.4351,-0.084,-2.8092,45.09,71.25,,True
1759741939.987,2025-10-06 10:12:19.986,0.0649,-0.0103,0.8899,2.5038,-0.5115,-2.8168,45.24,78.0,,True
1759741940.117,2025-10-06 10:12:20.116,0.0669,-0.0137,0.8779,2.4504,-0.0153,-2.7786,45.42,76.0,,True
1759741940.247,2025-10-06 10:12:20.247,0.0684,-0.0066,0.8784,2.1985,0.0534,-2.8168,45.19,62.5,,True
1759741940.378,2025-10-06 10:12:20.377,0.0674,-0.0115,0.8777,2.2748,-0.2214,-2.7328,45.09,72.0,,True
1759741940.517,2025-10-06 10:12:20.517,0.0667,-0.0142,0.8828,2.4809,-0.0611,-2.7481,45.19,117.0,,True
1759741940.646,2025-10-06 10:12:20.646,0.0715,-0.0071,0.874,2.4427,-0.5038,-2.7405,45.0,125.0,,True
1759741940.776,2025-10-06 10:12:20.776,0.0674,-0.0127,0.8794,2.5267,-0.5344,-2.5802,45.09,131.25,,True
1759741940.907,2025-10-06 10:12:20.906,0.0676,-0.0188,0.8655,2.4962,-0.3588,-2.7939,45.05,154.0,,True
1759741941.037,2025-10-06 10:12:21.037,0.0662,-0.0095,0.8745,2.4656,-0.3359,-2.7481,45.0,166.0,,True
1759741941.168,2025-10-06 10:12:21.167,0.0662,-0.0134,0.8809,2.4962,-0.1908,-2.458,45.24,166.0,,True
1759741941.306,2025-10-06 10:12:21.305,0.0676,-0.0112,0.8813,2.3969,0.2519,-2.687,45.33,166.0,,True
1759741941.437,2025-10-06 10:12:21.436,0.0662,-0.009,0.8826,2.7099,0.0,-2.8168,45.05,166.0,,True
1759741941.569,2025-10-06 10:12:21.569,0.0664,-0.0125,0.8789,2.5954,-0.1145,-2.6336,45.0,166.0,,True
1759741941.707,2025-10-06 10:12:21.706,0.0684,-0.0117,0.8833,2.542,-0.2137,-2.5878,45.33,154.0,,True
1759741941.837,2025-10-06 10:12:21.837,0.0684,-0.009,0.8787,2.3435,-0.1679,-2.7176,45.24,150.0,,True
1759741941.97,2025-10-06 10:12:21.970,0.0718,-0.0127,0.877,2.3969,-0.1069,-2.5496,45.19,139.5,,True
1759741942.108,2025-10-06 10:12:22.107,0.0691,-0.0098,0.8838,2.4885,-0.4351,-2.5802,45.0,136.0,,True
1759741942.238,2025-10-06 10:12:22.238,0.0647,-0.0105,0.8772,2.3053,-0.1908,-2.8168,45.24,143.0,,True
1759741942.37,2025-10-06 10:12:22.370,0.0659,-0.01,0.8794,2.3359,0.2519,-2.5038,45.38,158.5,,True
1759741942.508,2025-10-06 10:12:22.508,0.0676,-0.0103,0.8765,2.2748,-0.0687,-2.4962,45.09,166.0,,True
1759741942.641,2025-10-06 10:12:22.640,0.0676,-0.0095,0.8843,2.5725,0.0,-2.6412,45.19,143.5,,True
1759741942.773,2025-10-06 10:12:22.772,0.0669,-0.0103,0.8765,2.1221,0.1298,-2.6489,45.24,181.0,,True
1759741942.912,2025-10-06 10:12:22.911,0.0718,-0.0093,0.8889,2.4733,-0.0916,-2.5573,45.33,207.25,,True
1759741943.044,2025-10-06 10:12:23.043,0.0632,-0.0095,0.8721,2.4656,0.5115,-2.6947,45.33,187.0,,True
1759741943.176,2025-10-06 10:12:23.175,0.0667,-0.0107,0.8665,2.5344,-0.374,-2.6947,45.24,175.25,,True
1759741943.315,2025-10-06 10:12:23.315,0.0662,-0.0066,0.8813,2.2901,0.1298,-2.5267,45.0,150.0,,True
1759741943.447,2025-10-06 10:12:23.446,0.0686,-0.0154,0.8772,2.2366,-0.0687,-2.6489,45.09,150.0,,True
1759741943.586,2025-10-06 10:12:23.585,0.0686,-0.0103,0.8738,2.313,-0.1069,-2.5344,45.19,150.0,,True
1759741943.717,2025-10-06 10:12:23.717,0.0667,-0.0107,0.8762,2.3282,-0.313,-2.4733,45.09,158.0,,True
1759741943.85,2025-10-06 10:12:23.849,0.0676,-0.01,0.8716,2.3969,-0.2595,-2.855,45.38,176.5,,True
1759741943.989,2025-10-06 10:12:23.988,0.0701,-0.0103,0.8801,2.542,-0.0611,-2.7252,45.05,187.0,,True
1759741944.12,2025-10-06 10:12:24.120,0.0669,-0.0093,0.8804,2.2595,0.0763,-2.6412,45.09,204.25,,True
1759741944.253,2025-10-06 10:12:24.252,0.0657,-0.0105,0.8799,2.7557,-0.0534,-2.6641,45.38,187.0,,True
1759741944.392,2025-10-06 10:12:24.391,0.0696,-0.0122,0.8784,2.3511,-0.1527,-2.5878,45.24,181.75,,True
1759741944.524,2025-10-06 10:12:24.523,0.0657,-0.0132,0.8779,2.2748,-0.0382,-2.4885,45.05,166.0,,True
1759741944.673,2025-10-06 10:12:24.672,0.0669,-0.0095,0.8757,2.4275,-0.313,-2.6794,45.24,125.75,,True
1759741944.805,2025-10-06 10:12:24.805,0.0681,-0.0129,0.8838,2.3817,-0.0458,-2.6641,45.19,126.75,,True
1759741944.944,2025-10-06 10:12:24.943,0.0681,-0.011,0.8721,2.6489,0.1145,-2.9084,45.24,100.0,,True
1759741945.074,2025-10-06 10:12:25.074,0.0684,-0.0115,0.8821,2.1374,0.0305,-2.4885,45.24,88.0,,True
1759741945.206,2025-10-06 10:12:25.206,0.0681,-0.0144,0.8787,2.4351,-0.1756,-2.6107,45.05,86.75,,True
1759741945.344,2025-10-06 10:12:25.343,0.0688,-0.0088,0.8804,2.1985,-0.2443,-2.6718,45.24,83.0,,True
1759741945.475,2025-10-06 10:12:25.474,0.0688,-0.0122,0.8818,2.3053,-0.0992,-2.5267,45.09,86.75,,True
1759741945.607,2025-10-06 10:12:25.607,0.0659,-0.0093,0.8877,2.4733,-0.1527,-2.5649,45.24,97.25,,True
1759741945.745,2025-10-06 10:12:25.744,0.0652,-0.0127,0.8777,2.4427,-0.084,-2.4656,45.09,115.0,,True
1759741945.875,2025-10-06 10:12:25.875,0.0703,-0.0098,0.8809,2.6183,-0.1145,-2.7634,45.24,107.0,,True
1759741946.008,2025-10-06 10:12:26.007,0.0686,-0.0112,0.8809,2.458,-0.2366,-2.313,45.19,107.0,,True
1759741946.146,2025-10-06 10:12:26.145,0.0664,-0.0134,0.8821,2.2061,-0.1832,-2.7023,45.38,109.0,,True
1759741946.276,2025-10-06 10:12:26.275,0.0706,-0.0129,0.8774,2.7023,-0.1985,-2.6489,45.05,109.5,,True
1759741946.408,2025-10-06 10:12:26.407,0.0671,-0.0129,0.8796,2.2977,0.1145,-2.5191,45.0,98.5,,True
1759741946.546,2025-10-06 10:12:26.545,0.072,-0.0134,0.8789,2.229,-0.0916,-2.687,45.38,101.5,,True
1759741946.677,2025-10-06 10:12:26.676,0.0713,-0.0107,0.8875,2.2443,-0.2061,-2.7405,45.24,88.0,,True
1759741946.81,2025-10-06 10:12:26.809,0.0693,-0.0134,0.8853,2.4275,-0.1603,-2.4427,45.05,94.0,,True
1759741946.948,2025-10-06 10:12:26.947,0.0706,-0.0144,0.876,2.4504,-0.3053,-2.626,45.33,87.25,,True
1759741947.078,2025-10-06 10:12:27.078,0.0684,-0.0093,0.8779,2.4809,0.0611,-2.7481,45.38,100.25,,True
1759741947.21,2025-10-06 10:12:27.210,0.0703,-0.0149,0.8792,2.5191,0.0229,-2.7939,45.38,125.25,,True
1759741947.348,2025-10-06 10:12:27.348,0.0706,-0.0098,0.8887,2.374,-0.1603,-2.5038,45.24,136.0,,True
1759741947.479,2025-10-06 10:12:27.478,0.0693,-0.0071,0.8792,2.6718,-0.4122,-2.5496,45.24,143.0,,True
1759741947.611,2025-10-06 10:12:27.610,0.0674,-0.0127,0.8813,2.542,0.084,-2.6489,45.05,143.0,,True
1759741947.749,2025-10-06 10:12:27.748,0.0706,-0.0144,0.8804,2.4198,0.0458,-2.6794,45.38,136.0,,True
1759741947.879,2025-10-06 10:12:27.879,0.0725,-0.0125,0.8721,2.3511,-0.1069,-2.7557,45.24,150.0,,True
1759741948.011,2025-10-06 10:12:28.011,0.0637,-0.0122,0.8794,2.2519,-0.0382,-2.626,45.24,147.0,,True
1759741948.149,2025-10-06 10:12:28.149,0.0723,-0.01,0.877,2.5191,0.0229,-2.5344,45.09,154.0,,True
1759741948.28,2025-10-06 10:12:28.279,0.0693,-0.0081,0.8848,2.3893,-0.145,-2.8321,45.42,150.0,,True
1759741948.41,2025-10-06 10:12:28.409,0.0703,-0.0054,0.8862,2.3588,0.0916,-2.5649,45.09,146.5,,True
1759741948.54,2025-10-06 10:12:28.539,0.0708,-0.01,0.8711,2.2977,-0.0305,-2.5267,45.05,193.0,,True
1759741948.67,2025-10-06 10:12:28.669,0.0701,-0.0117,0.8843,2.3969,-0.1908,-2.6336,45.24,223.0,,True
1759741948.801,2025-10-06 10:12:28.801,0.0732,-0.0083,0.8806,2.6107,-0.0076,-2.6718,45.38,214.0,,True
1759741948.933,2025-10-06 10:12:28.933,0.0686,-0.01,0.8755,2.3893,-0.0229,-2.4809,45.19,223.0,,True
1759741949.071,2025-10-06 10:12:29.071,0.0735,-0.0103,0.8801,2.4275,0.0458,-2.7481,45.05,250.0,,True
1759741949.202,2025-10-06 10:12:29.201,0.0659,-0.0068,0.8853,2.6031,-0.458,-2.6412,45.38,232.0,,True
1759741949.332,2025-10-06 10:12:29.332,0.0669,-0.009,0.8794,2.4733,0.0534,-2.7786,45.19,207.25,,True
1759741949.464,2025-10-06 10:12:29.463,0.0696,-0.0117,0.877,1.8244,0.1374,-2.7023,45.24,167.25,,True
1759741949.594,2025-10-06 10:12:29.593,0.0706,-0.0115,0.8694,2.6489,-0.3511,-2.771,45.33,158.0,,True
1759741949.724,2025-10-06 10:12:29.724,0.0706,-0.0093,0.8799,2.4962,-0.2901,-2.5038,45.24,154.0,,True
1759741949.864,2025-10-06 10:12:29.863,0.0684,-0.0105,0.8811,2.3969,-0.145,-2.6412,45.19,150.0,,True
1759741949.996,2025-10-06 10:12:29.995,0.072,-0.011,0.8811,2.3282,-0.1832,-2.6412,45.05,139.5,,True
1759741950.128,2025-10-06 10:12:30.127,0.0698,-0.0122,0.8699,2.5954,-0.1756,-2.7405,45.24,116.75,,True
1759741950.267,2025-10-06 10:12:30.266,0.0706,-0.0095,0.8813,2.2824,-0.1603,-2.7099,45.33,84.25,,True
1759741950.399,2025-10-06 10:12:30.398,0.0669,-0.009,0.8865,2.5954,-0.2824,-2.4046,45.38,73.5,,True
1759741950.531,2025-10-06 10:12:30.530,0.0671,-0.0098,0.8738,2.6412,-0.2977,-2.6183,45.24,92.5,,True
1759741950.67,2025-10-06 10:12:30.670,0.0647,-0.0178,0.8755,2.5573,-0.3206,-2.771,45.19,120.5,,True
1759741950.803,2025-10-06 10:12:30.802,0.0693,-0.0125,0.8772,2.1527,0.2137,-2.7481,45.38,128.75,,True
1759741950.942,2025-10-06 10:12:30.942,0.0676,-0.0085,0.8762,2.1985,-0.1527,-2.6183,45.24,120.0,,True
1759741951.073,2025-10-06 10:12:31.073,0.0686,-0.009,0.8806,2.7557,-0.0611,-2.4504,45.33,153.0,,True
1759741951.206,2025-10-06 10:12:31.205,0.0679,-0.0146,0.887,2.1756,-0.1374,-2.8244,45.38,187.0,,True
1759741951.345,2025-10-06 10:12:31.344,0.0667,-0.01,0.8831,2.2366,0.0916,-2.7939,45.24,163.25,,True
1759741951.476,2025-10-06 10:12:31.476,0.0701,-0.0107,0.8765,2.4275,0.084,-2.6107,45.38,152.25,,True
1759741951.609,2025-10-06 10:12:31.608,0.0676,-0.011,0.8853,2.0687,-0.542,-2.7786,45.42,181.75,,True
1759741951.748,2025-10-06 10:12:31.747,0.0759,-0.0085,0.8733,1.5878,-3.6718,-2.6412,45.38,158.5,,True
1759741951.879,2025-10-06 10:12:31.879,0.0735,-0.0151,0.8792,2.7863,-0.4885,-2.5496,45.38,143.5,,True
1759741952.012,2025-10-06 10:12:32.011,0.0737,-0.0107,0.8774,2.1908,-0.0687,-2.5115,45.24,143.5,,True
1759741952.151,2025-10-06 10:12:32.150,0.075,-0.012,0.8748,2.1908,-0.2519,-2.6107,45.33,143.5,,True
1759741952.29,2025-10-06 10:12:32.290,0.0793,-0.0117,0.8811,1.8931,0.0076,-2.458,45.24,246.5,,True
1759741952.429,2025-10-06 10:12:32.428,0.073,-0.011,0.8745,2.7863,0.4122,-2.6641,45.05,266.0,,True
1759741952.559,2025-10-06 10:12:32.558,0.0691,-0.0127,0.877,1.2672,-1.8168,-2.4046,45.09,300.0,,True
1759741952.691,2025-10-06 10:12:32.691,0.0596,-0.0112,0.9124,2.5802,1.6412,-2.6947,45.38,300.0,,True
1759741952.838,2025-10-06 10:12:32.838,0.0764,-0.0095,0.8909,2.2672,-0.6412,-2.4275,45.09,187.5,,True
1759741952.968,2025-10-06 10:12:32.968,0.0723,-0.0068,0.8896,2.3588,-0.6565,-2.6489,45.38,162.0,,True
1759741953.098,2025-10-06 10:12:33.098,0.0537,0.0461,0.9897,6.1908,6.9008,10.6336,45.19,166.0,,True
1759741953.236,2025-10-06 10:12:33.236,0.0674,0.0015,0.8779,9.4504,-1.5573,72.4046,45.24,166.0,,True
1759741953.369,2025-10-06 10:12:33.368,-0.0627,-0.0398,0.8792,7.7405,-0.8626,49.6641,45.19,166.0,,True
1759741953.485,2025-10-06 10:12:33.484,0.0415,0.0042,0.8799,6.7863,-0.7252,35.0153,45.09,166.0,,True
1759741953.601,2025-10-06 10:12:33.600,0.0933,-0.0081,0.8574,4.2748,-2.9313,22.2901,45.09,166.0,,True
1759741953.717,2025-10-06 10:12:33.716,0.1719,-0.0635,0.8965,-5.1679,-14.5267,-9.2672,45.24,166.0,,True
1759741953.833,2025-10-06 10:12:33.832,0.0718,-0.0369,0.8711,7.9771,15.4656,-34.8702,45.19,166.0,,True
1759741953.949,2025-10-06 10:12:33.948,0.0723,-0.0081,0.8801,-1.3969,-0.084,-41.6794,45.09,166.0,,True
1759741954.065,2025-10-06 10:12:34.064,0.0745,-0.0037,0.8823,2.7023,0.4351,-2.5725,45.05,166.0,,True
1759741954.181,2025-10-06 10:12:34.180,0.0759,-0.0027,0.8677,2.3969,-0.0763,-2.5725,45.09,166.0,,True
1759741954.297,2025-10-06 10:12:34.296,0.0801,0.0032,0.8784,2.4504,0.1069,-2.4046,45.38,166.0,,True
1759741954.413,2025-10-06 10:12:34.412,0.0718,-0.0024,0.877,2.4198,-0.0687,-2.6031,45.09,166.0,,True
1759741954.529,2025-10-06 10:12:34.528,0.0708,0.0007,0.8782,2.4046,0.0534,-2.6183,44.91,166.0,,True
1759741954.645,2025-10-06 10:12:34.644,0.0742,-0.0059,0.8677,2.2901,0.0,-2.542,45.19,166.0,,True
1759741954.76,2025-10-06 10:12:34.760,0.0762,-0.0015,0.8701,2.4656,0.0229,-2.6336,45.05,166.0,,True
1759741954.877,2025-10-06 10:12:34.876,0.0801,0.0017,0.8831,2.3893,-0.0153,-2.6183,45.0,166.0,,True
1759741954.993,2025-10-06 10:12:34.992,0.0754,-0.0015,0.8701,2.2824,0.0305,-2.4733,45.24,166.0,,True
1759741955.109,2025-10-06 10:12:35.108,0.0781,-0.0007,0.8699,2.4504,0.1145,-2.687,45.24,166.0,,True
1759741955.225,2025-10-06 10:12:35.224,0.0762,0.0002,0.8826,2.8244,-0.0534,-2.4656,45.0,166.0,,True
1759741955.341,2025-10-06 10:12:35.340,0.0757,0.0007,0.873,2.3893,-0.0534,-2.4885,45.19,166.0,,True
1759741955.457,2025-10-06 10:12:35.456,0.075,0.0015,0.8882,2.542,-0.1908,-2.5878,45.42,166.0,,True
1759741955.573,2025-10-06 10:12:35.572,0.0796,0.0024,0.8762,2.542,0.145,-2.7939,45.05,166.0,,True
1759741955.689,2025-10-06 10:12:35.688,0.0767,0.0042,0.8708,2.3969,0.0229,-2.6641,45.33,166.0,,True
1759741955.805,2025-10-06 10:12:35.804,0.0718,-0.0002,0.8711,2.3969,0.0382,-2.626,45.09,166.0,,True
1759741955.92,2025-10-06 10:12:35.920,0.0754,0.0002,0.8872,2.3893,-0.0687,-2.5496,45.05,166.0,,True
1759741956.036,2025-10-06 10:12:36.036,0.0742,0.002,0.8716,2.374,-0.0076,-2.771,45.24,166.0,,True
1759741956.152,2025-10-06 10:12:36.152,0.0759,0.0024,0.8779,2.4046,-0.1679,-2.7863,45.09,166.0,,True
1759741956.268,2025-10-06 10:12:36.268,0.0769,-0.002,0.8765,2.4733,0.0916,-2.6489,45.24,166.0,,True
1759741956.384,2025-10-06 10:12:36.384,0.075,0.001,0.8789,2.5878,0.0153,-2.7328,45.09,166.0,,True
1759741956.5,2025-10-06 10:12:36.500,0.0767,-0.0002,0.875,2.2977,-0.3053,-2.7099,45.24,166.0,,True
1759741956.616,2025-10-06 10:12:36.616,0.0742,-0.0066,0.8748,2.4504,-0.0458,-2.5954,45.0,166.0,,True
1759741956.732,2025-10-06 10:12:36.732,0.0742,0.0029,0.8735,2.2901,-0.0611,-2.7328,45.09,166.0,,True
1759741956.848,2025-10-06 10:12:36.848,0.0762,0.0005,0.8745,2.1756,0.0229,-2.855,45.09,166.0,,True
1759741956.964,2025-10-06 10:12:36.964,0.0776,0.0027,0.875,2.3969,-0.0916,-2.9924,45.09,166.0,,True
1759741957.08,2025-10-06 10:12:37.080,0.0757,-0.0012,0.8738,2.3511,-0.1221,-2.7176,45.19,166.0,,True
1759741957.196,2025-10-06 10:12:37.196,0.0732,0.0029,0.8823,2.4046,-0.0534,-2.7786,45.0,166.0,,True
1759741957.312,2025-10-06 10:12:37.312,0.0769,-0.0005,0.8823,2.3282,-0.0458,-2.8473,45.19,166.0,,True
1759741957.428,2025-10-06 10:12:37.428,0.0754,0.001,0.8782,2.5649,0.084,-2.6641,45.24,166.0,,True
1759741957.544,2025-10-06 10:12:37.544,0.0759,-0.0005,0.8845,2.2824,0.0,-2.8473,45.19,166.0,,True
1759741957.66,2025-10-06 10:12:37.660,0.0725,0.002,0.8767,2.374,0.1756,-2.7176,45.24,166.0,,True
1759741957.776,2025-10-06 10:12:37.776,0.0725,0.0002,0.8752,2.542,-0.1145,-2.7786,45.0,166.0,,True
1759741957.892,2025-10-06 10:12:37.892,0.0737,0.0017,0.8706,2.4427,-0.1603,-2.6947,45.19,166.0,,True
1759741958.008,2025-10-06 10:12:38.008,0.0752,-0.0027,0.8816,2.4122,0.0,-2.542,45.0,166.0,,True
1759741958.124,2025-10-06 10:12:38.124,0.0747,-0.0005,0.8772,2.3511,0.0611,-2.7634,45.09,166.0,,True
1759741958.24,2025-10-06 10:12:38.240,0.0713,-0.0012,0.8816,2.2672,-0.0229,-2.5573,45.05,166.0,,True
1759741958.356,2025-10-06 10:12:38.356,0.0774,0.002,0.8738,2.3893,-0.0534,-2.5802,45.24,166.0,,True
1759741958.472,2025-10-06 10:12:38.472,0.074,-0.0037,0.8853,2.4962,-0.145,-2.6031,45.09,166.0,,True
1759741958.588,2025-10-06 10:12:38.588,0.0767,-0.0007,0.8774,2.4275,-0.2443,-2.687,45.05,166.0,,True
1759741958.704,2025-10-06 10:12:38.704,0.0784,0.0,0.8765,2.6031,-0.2214,-2.626,45.05,166.0,,True
1759741958.82,2025-10-06 10:12:38.820,0.0718,0.0022,0.8809,2.3053,-0.145,-2.687,45.24,166.0,,True
1759741958.936,2025-10-06 10:12:38.936,0.0759,0.0012,0.8762,2.4885,-0.0305,-2.5725,45.09,166.0,,True
1759741959.052,2025-10-06 10:12:39.052,0.0752,0.0012,0.8777,2.5038,0.0687,-2.5649,45.05,166.0,,True
1759741959.168,2025-10-06 10:12:39.168,0.0769,-0.0024,0.876,2.5038,0.0992,-2.6336,45.05,166.0,,True
1759741959.285,2025-10-06 10:12:39.284,0.0803,-0.009,0.8643,1.771,-0.855,-2.8244,45.24,166.0,,True
1759741959.401,2025-10-06 10:12:39.400,0.0732,-0.0002,0.8762,2.2443,0.9618,-2.6947,45.09,166.0,,True
1759741959.517,2025-10-06 10:12:39.516,0.074,-0.0015,0.8687,2.2977,0.3511,-2.5191,45.0,166.0,,True
1759741959.633,2025-10-06 10:12:39.632,0.0728,-0.0012,0.8838,2.2061,0.0916,-2.4962,45.33,166.0,,True
1759741959.75,2025-10-06 10:12:39.750,0.0747,-0.0029,0.8774,2.4962,0.0458,-2.6947,45.05,166.0,,True
1759741959.866,2025-10-06 10:12:39.866,0.0735,0.0005,0.8813,3.0076,-2.0305,-2.7634,45.24,166.0,,True
1759741959.983,2025-10-06 10:12:39.982,0.0764,-0.0012,0.8689,2.3588,-0.3435,-2.5878,45.09,166.0,,True
1759741960.099,2025-10-06 10:12:40.098,0.0776,-0.001,0.8674,2.5191,-0.0229,-2.7557,45.24,166.0,,True
1759741960.215,2025-10-06 10:12:40.214,0.0608,0.0063,0.8979,3.1985,-3.4656,-2.5878,45.24,166.0,,True
1759741960.331,2025-10-06 10:12:40.330,0.0723,-0.0007,0.8765,2.3664,-0.2519,-2.5878,45.0,166.0,,True
1759741960.447,2025-10-06 10:12:40.447,0.0752,0.0068,0.895,3.1527,-7.4198,-2.7863,45.09,166.0,,True
1759741960.563,2025-10-06 10:12:40.563,0.0767,-0.0027,0.8748,2.2519,0.0076,-2.5878,45.33,166.0,,True
1759741960.685,2025-10-06 10:12:40.684,0.0437,0.0083,0.9282,2.7939,-0.7939,-2.5725,45.05,166.0,,True
1759741960.801,2025-10-06 10:12:40.800,0.0388,-0.6829,1.5317,21.084,-8.9008,-5.3053,45.0,166.0,,True
1759741960.917,2025-10-06 10:12:40.917,0.0713,-0.0012,0.8899,2.4504,-0.3511,-2.7023,45.05,166.0,,True
1759741961.033,2025-10-06 10:12:41.033,0.0532,0.0049,0.8899,3.6718,-5.7405,-3.0,45.33,166.0,,True
1759741961.15,2025-10-06 10:12:41.149,0.0774,-0.0005,0.877,2.4733,-0.1908,-2.6718,45.0,166.0,,True
1759741961.27,2025-10-06 10:12:41.269,0.0688,0.0056,0.8945,2.3817,-0.8397,-2.7176,45.33,166.0,,True
1759741961.386,2025-10-06 10:12:41.385,0.0742,-0.0015,0.8748,2.5802,0.0076,-2.7099,45.19,166.0,,True
1759741961.502,2025-10-06 10:12:41.502,0.0754,0.0005,0.8757,2.5573,0.0153,-2.6183,45.24,166.0,,True
1759741961.618,2025-10-06 10:12:41.618,0.0718,-0.0002,0.8777,2.313,0.9084,-2.6489,45.09,166.0,,True
1759741961.735,2025-10-06 10:12:41.734,0.0713,-0.0022,0.8804,2.4046,0.2748,-2.4046,45.38,166.0,,True
1759741961.851,2025-10-06 10:12:41.850,0.0667,-0.0017,0.8757,2.5191,-0.5725,-2.6947,45.33,166.0,,True
1759741961.967,2025-10-06 10:12:41.966,0.0723,-0.0005,0.8867,2.0992,-0.0611,-2.8015,45.0,166.0,,True
1759741962.083,2025-10-06 10:12:42.083,0.0698,-0.0017,0.8677,2.1603,-0.2443,-2.6412,45.0,166.0,,True
1759741962.199,2025-10-06 10:12:42.199,0.0742,-0.0042,0.8721,2.3435,0.2901,-2.8244,45.42,166.0,,True
1759741962.316,2025-10-06 10:12:42.315,0.0745,-0.0024,0.8704,2.3893,2.9618,-2.6183,45.24,166.0,,True
1759741962.432,2025-10-06 10:12:42.431,0.0681,-0.0015,0.8745,2.4046,0.7481,-2.5344,45.19,166.0,,True
1759741962.548,2025-10-06 10:12:42.548,0.0684,0.0002,0.876,2.1756,-1.4733,-2.6107,45.09,166.0,,True
1759741962.664,2025-10-06 10:12:42.664,0.0662,-0.0044,0.8762,2.5344,-1.6947,-2.6183,45.19,166.0,,True
1759741962.78,2025-10-06 10:12:42.780,0.0649,-0.0027,0.8794,2.626,-0.5649,-2.7939,45.0,166.0,,True
1759741962.897,2025-10-06 10:12:42.896,0.0662,-0.0007,0.8792,2.5649,-0.8779,-2.7786,45.19,166.0,,True
1759741963.013,2025-10-06 10:12:43.012,0.0664,-0.0042,0.877,2.5878,-3.9237,-2.7405,45.05,166.0,,True
1759741963.129,2025-10-06 10:12:43.129,0.0718,-0.0017,0.8794,2.3511,-0.4198,-2.8931,45.09,166.0,,True
1759741963.245,2025-10-06 10:12:43.245,0.0728,-0.001,0.8813,2.5038,0.1298,-2.458,45.0,166.0,,True
1759741963.362,2025-10-06 10:12:43.361,0.0735,-0.002,0.8755,2.5802,0.084,-2.5115,45.05,166.0,,True
1759741963.478,2025-10-06 10:12:43.477,0.0728,-0.0029,0.8767,2.5344,0.1527,-2.6794,45.24,166.0,,True
1759741963.594,2025-10-06 10:12:43.593,0.0715,-0.0066,0.8794,2.4275,-0.5725,-2.313,45.19,166.0,,True
1759741963.71,2025-10-06 10:12:43.709,0.0725,-0.0032,0.8743,2.5191,0.4885,-2.6947,45.24,166.0,,True
1759741963.826,2025-10-06 10:12:43.825,0.0732,0.0007,0.8713,2.2366,1.0153,-2.5802,45.24,166.0,,True
1759741963.942,2025-10-06 10:12:43.941,0.0708,0.0002,0.8708,2.313,1.0687,-2.7252,45.24,166.0,,True
1759741964.058,2025-10-06 10:12:44.057,0.064,-0.0017,0.874,2.3435,1.1832,-2.5038,45.24,166.0,,True
1759741964.174,2025-10-06 10:12:44.173,0.0681,-0.0049,0.8735,2.5802,0.2137,-2.7099,45.05,166.0,,True
1759741964.293,2025-10-06 10:12:44.292,0.0618,-0.0015,0.8787,2.2366,0.2519,-2.6031,45.0,166.0,,True
1759741964.409,2025-10-06 10:12:44.408,0.0696,-0.0005,0.875,2.2672,-0.3511,-2.5954,45.38,166.0,,True
1759741964.525,2025-10-06 10:12:44.524,0.0688,-0.0024,0.8672,2.1908,0.9313,-2.6641,45.0,166.0,,True
1759741964.641,2025-10-06 10:12:44.640,0.0615,0.0007,0.8782,4.1985,-12.8779,-3.1679,45.19,166.0,,True
1759741964.757,2025-10-06 10:12:44.757,0.0806,-0.0039,0.8679,2.0611,-1.2977,-2.8397,45.33,166.0,,True
1759741964.873,2025-10-06 10:12:44.873,0.0771,-0.002,0.875,2.4427,0.0687,-2.7252,45.24,166.0,,True
1759741964.989,2025-10-06 10:12:44.989,0.0737,-0.0024,0.8772,2.3588,-0.1832,-2.7786,45.38,166.0,,True
1759741965.105,2025-10-06 10:12:45.105,0.073,-0.0007,0.8835,2.1832,0.1069,-2.5954,45.24,166.0,,True
1759741965.221,2025-10-06 10:12:45.221,0.0771,0.0,0.875,2.3969,-0.0458,-2.5496,45.05,166.0,,True
1759741965.338,2025-10-06 10:12:45.338,0.071,0.0022,0.8696,2.5649,0.0076,-2.4656,45.05,166.0,,True
1759741965.455,2025-10-06 10:12:45.454,0.0737,-0.001,0.8723,2.4809,0.0534,-2.5725,45.09,166.0,,True
1759741965.571,2025-10-06 10:12:45.570,0.0737,0.0024,0.8811,2.1298,-0.1374,-2.542,45.09,166.0,,True
1759741965.687,2025-10-06 10:12:45.687,0.0764,0.002,0.8792,2.4885,-0.0611,-2.6794,45.09,166.0,,True
1759741965.803,2025-10-06 10:12:45.803,0.0742,0.0027,0.8762,2.3206,-0.0916,-2.5878,45.24,166.0,,True
1759741965.919,2025-10-06 10:12:45.919,0.0737,0.0027,0.8787,2.5267,0.0305,-2.6794,45.09,166.0,,True
1759741966.036,2025-10-06 10:12:46.035,0.0757,0.0007,0.8787,2.3817,-0.1679,-2.542,45.19,166.0,,True
1759741966.152,2025-10-06 10:12:46.151,0.0762,-0.0044,0.8669,2.3664,-0.1679,-2.7786,45.09,166.0,,True
1759741966.268,2025-10-06 10:12:46.267,0.0725,0.0005,0.877,2.374,-0.0153,-2.6565,45.09,166.0,,True
1759741966.384,2025-10-06 10:12:46.383,0.0723,-0.0012,0.8784,2.4351,0.0229,-2.7634,45.0,166.0,,True
