timestamp,datetime,ax,ay,az,gx,gy,gz,spo2,finger_detected
1759741559.567,2025-10-06 10:05:59.566,0.0449,-0.0037,0.8828,2.2824,-2.4122,-2.6489,,False
1759741559.699,2025-10-06 10:05:59.699,0.0852,-0.0063,0.8689,3.4122,-4.6641,6.916,,False
1759741559.844,2025-10-06 10:05:59.844,0.0376,-0.0071,0.8857,2.4962,-1.8397,-2.7328,,False
1759741559.972,2025-10-06 10:05:59.972,0.0564,-0.0054,0.8845,2.6565,-2.4733,-0.7939,,False
1759741560.1,2025-10-06 10:06:00.100,0.0566,-0.0085,0.8772,3.2901,-5.7328,0.5725,,False
1759741560.245,2025-10-06 10:06:00.245,0.0566,-0.0051,0.8789,2.0458,0.1756,-2.626,,False
1759741560.377,2025-10-06 10:06:00.377,0.0432,-0.0071,0.8862,2.2519,2.313,-2.626,,False
1759741560.51,2025-10-06 10:06:00.509,0.0518,-0.0063,0.8821,2.4962,0.1374,-2.5878,,False
1759741560.642,2025-10-06 10:06:00.642,0.0417,-0.0061,0.8794,2.6031,0.6336,-2.6107,,False
1759741560.771,2025-10-06 10:06:00.770,0.0483,-0.0103,0.8845,2.5573,-0.0687,-2.6565,,False
1759741560.899,2025-10-06 10:06:00.899,0.0486,-0.0088,0.8704,2.5802,1.2824,-2.2519,,False
1759741561.031,2025-10-06 10:06:01.031,0.0527,-0.0059,0.8831,2.3893,0.2061,-2.771,,False
1759741561.164,2025-10-06 10:06:01.164,0.0498,-0.0125,0.8799,2.3435,0.6107,-2.7023,,False
1759741561.292,2025-10-06 10:06:01.292,0.0474,-0.0051,0.8809,2.3359,-0.4809,-2.6031,,False
1759741561.42,2025-10-06 10:06:01.420,0.051,-0.0066,0.8892,2.626,0.5115,-2.6031,,False
1759741561.553,2025-10-06 10:06:01.552,0.0459,-0.0088,0.8787,2.5038,0.6565,-2.8015,,False
1759741561.688,2025-10-06 10:06:01.687,0.0449,-0.0081,0.8835,2.3359,0.5878,-2.4656,,True
1759741561.828,2025-10-06 10:06:01.828,0.0457,-0.0081,0.8804,2.5573,-0.3359,-2.5573,,True
1759741561.968,2025-10-06 10:06:01.967,0.0464,-0.0073,0.8818,2.3206,-1.4733,-2.8092,,True
1759741562.099,2025-10-06 10:06:02.099,0.0449,-0.0115,0.8813,2.7557,2.0916,-2.7176,,True
1759741562.239,2025-10-06 10:06:02.238,0.0344,-0.0051,0.8862,2.1679,-1.458,-2.5038,,True
1759741562.371,2025-10-06 10:06:02.370,0.0461,-0.0017,0.8896,2.6565,-0.4656,-2.4504,,True
1759741562.503,2025-10-06 10:06:02.502,0.0518,-0.0081,0.8899,2.4733,-0.1374,-2.5649,,True
1759741562.642,2025-10-06 10:06:02.642,0.0342,-0.0088,0.877,2.7328,2.0382,-2.6794,,True
1759741562.774,2025-10-06 10:06:02.773,0.0388,-0.0049,0.8804,2.9618,2.9008,-2.8626,,True
1759741562.905,2025-10-06 10:06:02.904,0.0391,-0.0051,0.887,2.3511,-1.3435,-2.4275,,True
1759741563.036,2025-10-06 10:06:03.036,0.0295,-0.0049,0.876,2.4427,-0.6107,-2.7252,,True
1759741563.168,2025-10-06 10:06:03.167,0.0398,-0.0032,0.8801,2.5191,0.7481,-2.626,,True
1759741563.3,2025-10-06 10:06:03.300,0.0283,-0.0034,0.8901,2.1221,-1.2061,-2.8168,,True
1759741563.439,2025-10-06 10:06:03.439,0.0352,-0.0059,0.8784,2.1298,-2.0611,-2.626,,True
1759741563.571,2025-10-06 10:06:03.571,0.0471,-0.0068,0.8857,2.5649,-6.8779,-2.9389,,True
1759741563.703,2025-10-06 10:06:03.703,0.0559,-0.0066,0.8833,2.5115,-2.4733,-2.3282,,True
1759741563.852,2025-10-06 10:06:03.852,0.0608,-0.0029,0.8784,2.5344,-7.771,-0.5191,,True
1759741563.984,2025-10-06 10:06:03.984,0.0723,-0.0085,0.8809,3.0992,0.7863,-2.542,,True
1759741564.124,2025-10-06 10:06:04.124,0.0442,0.0652,0.8862,3.2672,-1.0611,10.2519,,True
1759741564.256,2025-10-06 10:06:04.255,-0.0056,-0.0347,0.8789,3.4962,0.542,6.3893,,True
1759741564.388,2025-10-06 10:06:04.388,-0.0334,0.1272,0.8643,4.2443,-3.2977,19.1069,,True
1759741564.519,2025-10-06 10:06:04.519,0.189,0.0129,0.8179,6.145,10.7634,-2.6107,,True
1759741564.651,2025-10-06 10:06:04.651,0.0205,-0.0647,0.8765,1.8015,-0.1832,-13.6107,,True
1759741564.783,2025-10-06 10:06:04.783,0.0281,-0.0198,0.8657,2.2061,-8.8015,-2.5954,,True
1759741564.923,2025-10-06 10:06:04.922,0.0535,-0.0701,0.8958,2.0,11.3664,-12.3282,,True
1759741565.055,2025-10-06 10:06:05.054,0.0679,-0.001,0.8843,2.145,-4.8244,-2.6183,,True
1759741565.194,2025-10-06 10:06:05.193,0.0647,-0.0083,0.884,0.9618,-0.4198,-20.5725,,True
1759741565.325,2025-10-06 10:06:05.325,0.0674,-0.0054,0.8877,1.6336,-2.0382,-6.9237,,True
1759741565.456,2025-10-06 10:06:05.455,0.0742,-0.0032,0.8816,2.1374,0.3053,-2.6107,,True
1759741565.595,2025-10-06 10:06:05.595,0.075,-0.0042,0.8796,2.145,0.6183,-6.2214,,True
1759741565.727,2025-10-06 10:06:05.726,0.0732,-0.0066,0.8796,1.9237,-2.0,-2.8015,,True
1759741565.869,2025-10-06 10:06:05.868,0.0771,-0.0095,0.8687,2.7863,1.084,-2.7939,,True
1759741566.0,2025-10-06 10:06:05.999,0.0813,-0.0093,0.8601,1.9389,-1.2061,-2.7939,,True
1759741566.131,2025-10-06 10:06:06.130,0.0754,-0.0032,0.8826,2.5649,-0.3359,-2.8244,,True
1759741566.262,2025-10-06 10:06:06.262,0.0693,-0.0073,0.8787,3.0229,2.1603,-2.7786,,True
1759741566.393,2025-10-06 10:06:06.393,0.0288,-0.0217,0.8931,1.1756,0.1221,-13.313,,True
1759741566.524,2025-10-06 10:06:06.524,0.1101,0.02,0.8638,2.5191,0.3053,-2.5649,,True
1759741566.656,2025-10-06 10:06:06.655,0.0493,-0.0007,0.866,6.7481,-8.0153,4.8855,,True
1759741566.795,2025-10-06 10:06:06.795,0.0354,-0.019,0.8962,2.8168,-1.4351,1.1298,,True
1759741566.927,2025-10-06 10:06:06.926,0.1304,0.0195,0.9004,-1.3969,27.458,-19.145,,True
1759741567.059,2025-10-06 10:06:07.058,0.0266,-0.0535,0.8806,1.6947,-1.4122,-12.5344,,True
1759741567.198,2025-10-06 10:06:07.197,-0.0337,-0.0146,0.8906,4.5725,-6.5267,21.6794,,True
1759741567.329,2025-10-06 10:06:07.329,0.0598,-0.0977,0.8467,1.8702,3.2061,-11.1221,,True
1759741567.461,2025-10-06 10:06:07.461,0.053,0.0073,0.8533,4.4046,-20.6794,17.7176,,True
1759741567.601,2025-10-06 10:06:07.600,0.1057,0.0054,0.8633,2.0992,2.145,-7.9084,,True
1759741567.732,2025-10-06 10:06:07.732,0.0229,0.0037,0.874,3.9771,-10.145,11.1832,,True
1759741567.864,2025-10-06 10:06:07.864,0.0649,-0.0549,0.8787,1.9313,-0.9389,-8.3969,,True
1759741567.995,2025-10-06 10:06:07.995,0.0647,0.0295,0.8772,2.7557,0.8015,-4.8397,,True
1759741568.127,2025-10-06 10:06:08.126,0.1211,0.0037,0.8611,5.0382,-13.5649,2.1603,,True
1759741568.259,2025-10-06 10:06:08.259,0.0613,0.01,0.8691,2.084,-1.5191,-2.9924,,True
1759741568.398,2025-10-06 10:06:08.398,0.0579,-0.022,0.8796,3.2137,-0.5496,2.2977,,True
1759741568.53,2025-10-06 10:06:08.529,0.0781,0.0261,0.8611,1.7099,4.1527,-12.1221,,True
1759741568.662,2025-10-06 10:06:08.662,0.0815,0.0181,0.8774,1.9008,-0.6489,-4.8626,,True
1759741568.802,2025-10-06 10:06:08.801,0.0537,-0.0007,0.884,2.5802,-0.8321,-2.8855,,True
1759741568.933,2025-10-06 10:06:08.933,0.0481,-0.0066,0.8848,2.626,-1.1298,-1.9466,,True
1759741569.065,2025-10-06 10:06:09.064,0.0718,-0.0286,0.8738,2.5573,1.0763,-8.0153,,True
1759741569.197,2025-10-06 10:06:09.197,0.0876,-0.0063,0.8811,2.5038,0.6489,-0.2824,,True
1759741569.329,2025-10-06 10:06:09.328,0.0396,0.0374,0.8796,2.1527,1.5954,-4.0763,,True
1759741569.46,2025-10-06 10:06:09.460,0.0447,0.0178,0.8809,2.1145,-1.5115,-4.8702,,True
1759741569.591,2025-10-06 10:06:09.591,0.0708,-0.0369,0.8733,2.313,-0.5267,-8.7939,,True
1759741569.722,2025-10-06 10:06:09.722,0.0701,-0.0032,0.8765,2.5954,-1.2061,-2.6107,,True
1759741569.854,2025-10-06 10:06:09.853,0.0811,-0.0242,0.8743,1.5573,0.2137,-11.1985,,True
1759741570.003,2025-10-06 10:06:10.003,0.0654,-0.0015,0.8828,2.7863,0.1908,1.1527,,True
1759741570.135,2025-10-06 10:06:10.135,0.071,0.0061,0.8738,2.5344,-1.0229,-1.458,,True
1759741570.275,2025-10-06 10:06:10.274,0.032,-0.0027,0.8669,3.229,-0.2366,5.9084,,True
1759741570.406,2025-10-06 10:06:10.406,0.0732,-0.009,0.8716,2.1145,0.0153,-7.3511,,True
1759741570.538,2025-10-06 10:06:10.538,0.0654,-0.0127,0.8689,2.6183,0.0534,-3.771,,True
1759741570.677,2025-10-06 10:06:10.677,0.0698,-0.0063,0.8804,2.7405,-3.0763,-2.6336,,True
1759741570.809,2025-10-06 10:06:10.809,0.0701,-0.0093,0.8889,1.8321,0.2214,-4.5954,,True
1759741570.941,2025-10-06 10:06:10.941,0.0513,0.019,0.8647,2.7023,-0.1985,-0.9695,,True
1759741571.08,2025-10-06 10:06:11.080,0.0933,-0.0005,0.8774,2.1679,3.9389,2.0916,,True
1759741571.212,2025-10-06 10:06:11.211,0.0588,-0.0051,0.887,2.4351,-0.9542,2.9084,,True
1759741571.351,2025-10-06 10:06:11.351,0.0764,-0.0022,0.8909,2.4351,-0.4275,-4.6947,,True
1759741571.483,2025-10-06 10:06:11.482,0.04,-0.0122,0.8816,2.5496,0.1527,0.4733,,True
1759741571.615,2025-10-06 10:06:11.614,0.0742,-0.0366,0.8777,2.1069,2.2748,-2.4885,,True
1759741571.754,2025-10-06 10:06:11.753,0.0698,-0.0056,0.8767,2.2901,1.0916,-2.6183,,True
1759741571.886,2025-10-06 10:06:11.885,0.0686,-0.0059,0.8752,2.2366,1.145,-2.7328,,True
1759741572.026,2025-10-06 10:06:12.026,0.0681,-0.0098,0.8806,2.5038,-0.6336,-2.7939,,True
1759741572.165,2025-10-06 10:06:12.165,0.0706,-0.0046,0.8789,2.4809,-1.1069,-2.7252,,True
1759741572.297,2025-10-06 10:06:12.296,0.0742,-0.0027,0.8733,1.9542,2.4733,-2.5954,,True
1759741572.436,2025-10-06 10:06:12.435,0.062,-0.0066,0.8755,1.8931,2.3664,-2.5878,,True
1759741572.567,2025-10-06 10:06:12.567,0.0645,-0.0088,0.876,2.6489,-2.1145,-2.8092,,True
1759741572.7,2025-10-06 10:06:12.699,0.0586,-0.0073,0.8772,2.5649,-1.2748,-2.6489,,True
1759741572.839,2025-10-06 10:06:12.838,0.0649,-0.0056,0.8794,2.3969,-0.771,-2.2443,,True
1759741572.971,2025-10-06 10:06:12.970,0.0647,-0.009,0.8816,2.542,-0.542,-2.5802,,True
1759741573.102,2025-10-06 10:06:13.101,0.0669,-0.0093,0.877,2.5573,-0.5878,-2.5802,,True
1759741573.233,2025-10-06 10:06:13.232,0.0708,-0.0032,0.876,2.3893,0.0076,-2.5649,,True
1759741573.364,2025-10-06 10:06:13.364,0.0664,-0.0068,0.8789,2.6794,-0.0763,-2.542,,True
1759741573.497,2025-10-06 10:06:13.496,0.0674,-0.0063,0.8745,2.2443,0.1985,-2.3664,,True
1759741573.636,2025-10-06 10:06:13.636,0.0696,-0.0085,0.8792,2.3435,-0.8473,-2.6107,,True
1759741573.768,2025-10-06 10:06:13.767,0.0706,-0.0107,0.8755,2.4427,-0.084,-2.5954,,True
1759741573.899,2025-10-06 10:06:13.898,0.0703,-0.0127,0.8726,2.6794,0.1374,-2.8015,,True
1759741574.047,2025-10-06 10:06:14.047,0.071,-0.0063,0.8757,2.5878,0.0153,-2.7099,,True
1759741574.18,2025-10-06 10:06:14.180,0.0671,-0.0051,0.884,2.5496,-0.2137,-2.9924,,True
1759741574.319,2025-10-06 10:06:14.318,0.0684,-0.0066,0.8862,2.3359,0.5496,-2.6336,,True
1759741574.45,2025-10-06 10:06:14.450,0.0642,-0.0049,0.8777,1.9847,2.9466,-2.6336,,True
1759741574.589,2025-10-06 10:06:14.589,0.0581,-0.0068,0.8879,2.4504,-0.1527,-2.8244,,True
1759741574.721,2025-10-06 10:06:14.720,0.052,-0.0012,0.8838,2.626,-3.1145,-2.8168,,True
1759741574.853,2025-10-06 10:06:14.853,0.0615,-0.0925,0.8857,3.2443,-2.1832,3.3664,,True
1759741574.992,2025-10-06 10:06:14.992,0.0583,-0.0061,0.877,2.2748,0.4504,-2.7099,,True
1759741575.124,2025-10-06 10:06:15.123,0.0498,-0.01,0.8755,2.3664,2.0305,-2.4275,,True
1759741575.256,2025-10-06 10:06:15.255,0.0479,-0.0088,0.8813,2.5038,1.3206,-2.5191,,True
1759741575.395,2025-10-06 10:06:15.395,0.0488,-0.0117,0.8843,2.4351,-0.4656,-2.7176,,True
1759741575.527,2025-10-06 10:06:15.526,0.0469,-0.0051,0.8813,2.542,-0.2214,-2.6412,,True
1759741575.659,2025-10-06 10:06:15.658,0.0493,-0.0103,0.8811,2.4427,-0.0916,-2.6565,,True
1759741575.798,2025-10-06 10:06:15.797,0.0476,-0.0068,0.8733,2.5649,-0.7557,-1.7023,,True
1759741575.929,2025-10-06 10:06:15.929,0.0537,-0.0051,0.8872,2.374,-0.0687,-2.5344,,True
1759741576.081,2025-10-06 10:06:16.080,0.0559,-0.0059,0.8789,2.4962,-0.1221,-2.5954,,True
1759741576.213,2025-10-06 10:06:16.212,0.054,-0.0073,0.8784,2.7099,-0.084,-2.4275,,True
1759741576.352,2025-10-06 10:06:16.352,0.052,-0.0071,0.8779,2.4427,0.0916,-2.5878,,True
1759741576.484,2025-10-06 10:06:16.483,0.0535,-0.0085,0.8828,2.2519,-0.0992,-2.7939,,True
1759741576.616,2025-10-06 10:06:16.616,0.051,-0.0042,0.8826,2.4122,-0.0153,-2.6107,,True
1759741576.756,2025-10-06 10:06:16.755,0.0515,-0.0076,0.8821,2.4885,0.0076,-2.6336,,True
1759741576.887,2025-10-06 10:06:16.887,0.052,-0.0054,0.8835,2.5344,-0.1221,-2.6412,,True
1759741577.02,2025-10-06 10:06:17.019,0.0571,-0.0081,0.8767,2.5573,-0.0153,-2.6412,,True
1759741577.159,2025-10-06 10:06:17.158,0.0518,-0.0093,0.8828,2.3664,0.2137,-2.687,,True
1759741577.291,2025-10-06 10:06:17.290,0.0522,-0.0081,0.8782,2.3206,-0.3053,-2.6336,,True
1759741577.43,2025-10-06 10:06:17.429,0.0525,-0.01,0.8838,2.5038,0.3511,-2.6336,,True
1759741577.562,2025-10-06 10:06:17.561,0.0535,-0.0107,0.8806,2.5878,-0.0305,-2.5267,,True
1759741577.694,2025-10-06 10:06:17.693,0.0547,-0.0076,0.8755,2.5267,0.1679,-2.5802,,True
1759741577.833,2025-10-06 10:06:17.832,0.0496,-0.009,0.8833,2.2824,-0.1145,-2.5725,,True
1759741577.965,2025-10-06 10:06:17.964,0.0505,-0.0078,0.8811,2.374,-0.1908,-2.9542,,True
1759741578.105,2025-10-06 10:06:18.105,0.0513,-0.0044,0.8867,2.4046,-0.0229,-2.6336,,True
1759741578.244,2025-10-06 10:06:18.244,0.0483,-0.0093,0.8801,2.458,-0.0382,-2.4504,,True
1759741578.376,2025-10-06 10:06:18.375,0.052,-0.0095,0.8721,2.2595,-0.1145,-2.4885,,True
1759741578.515,2025-10-06 10:06:18.515,0.0525,-0.0034,0.8831,2.374,-0.4122,-2.7557,,True
1759741578.647,2025-10-06 10:06:18.646,0.0505,-0.0073,0.8735,2.4427,-0.1374,-2.5115,,True
1759741578.779,2025-10-06 10:06:18.778,0.052,-0.0042,0.8821,2.2214,-0.0229,-2.7863,,True
1759741578.918,2025-10-06 10:06:18.917,0.0515,-0.0095,0.8896,2.4122,-0.0229,-2.7252,,True
1759741579.049,2025-10-06 10:06:19.049,0.0518,-0.0076,0.8801,2.3817,-0.3511,-2.6565,,True
1759741579.189,2025-10-06 10:06:19.188,0.0479,-0.0076,0.8772,2.3588,-0.2443,-2.687,,True
1759741579.32,2025-10-06 10:06:19.320,0.051,-0.0073,0.8845,2.229,-0.2214,-2.7634,,True
1759741579.452,2025-10-06 10:06:19.452,0.0564,-0.0059,0.8777,2.4504,0.0,-2.5878,,True
1759741579.591,2025-10-06 10:06:19.591,0.0527,-0.0044,0.8826,2.2977,0.5267,-2.6641,,True
1759741579.723,2025-10-06 10:06:19.722,0.0483,-0.0081,0.8794,2.6183,-0.145,-2.4046,,True
1759741579.855,2025-10-06 10:06:19.855,0.0515,-0.0088,0.8828,2.4198,-0.0153,-2.5802,,True
1759741579.994,2025-10-06 10:06:19.994,0.0508,-0.0049,0.8755,2.2977,-0.145,-2.5878,,True
1759741580.126,2025-10-06 10:06:20.126,0.051,-0.0024,0.8804,2.4962,-0.1145,-2.6412,,True
1759741580.258,2025-10-06 10:06:20.258,0.053,-0.0088,0.875,2.4962,0.0076,-2.6565,,True
1759741580.389,2025-10-06 10:06:20.389,0.0508,-0.0083,0.877,2.5573,-0.2519,-2.4198,,True
1759741580.52,2025-10-06 10:06:20.520,0.0518,-0.0081,0.8838,2.4122,-0.3664,-2.6412,,True
1759741580.652,2025-10-06 10:06:20.651,0.051,-0.0039,0.8767,2.3053,-0.0229,-2.4046,,True
1759741580.791,2025-10-06 10:06:20.791,0.0527,-0.0051,0.8799,2.5344,-0.1298,-2.6947,,True
1759741580.923,2025-10-06 10:06:20.922,0.0547,-0.0068,0.8792,2.3817,-0.2061,-2.5649,,True
1759741581.055,2025-10-06 10:06:21.054,0.052,-0.0103,0.8867,2.5038,-0.2595,-2.8397,,True
1759741581.194,2025-10-06 10:06:21.193,0.0552,-0.0071,0.8809,2.6718,-0.1603,-2.8855,,True
1759741581.325,2025-10-06 10:06:21.325,0.0537,-0.0049,0.885,2.4809,-0.3969,-2.6183,,True
1759741581.458,2025-10-06 10:06:21.457,0.0527,-0.0042,0.8826,2.3206,-0.2137,-2.6565,,True
1759741581.597,2025-10-06 10:06:21.596,0.0574,-0.009,0.8745,2.6031,-0.084,-2.6718,,True
1759741581.728,2025-10-06 10:06:21.728,0.0508,-0.0061,0.8828,2.5878,-0.2748,-2.8702,,True
1759741581.867,2025-10-06 10:06:21.867,0.0503,-0.0059,0.8787,2.313,-0.3588,-2.771,,True
1759741581.999,2025-10-06 10:06:21.998,0.0547,-0.0051,0.8826,2.4427,-0.2061,-2.771,,True
1759741582.13,2025-10-06 10:06:22.129,0.0557,-0.0093,0.8872,2.4198,0.0305,-2.4504,,True
1759741582.261,2025-10-06 10:06:22.260,0.0518,-0.0088,0.8792,2.3817,-0.1221,-2.542,,True
1759741582.392,2025-10-06 10:06:22.391,0.0554,-0.0063,0.8733,2.4504,0.0382,-2.6565,,True
1759741582.523,2025-10-06 10:06:22.523,0.051,-0.0076,0.8818,2.2824,-0.0611,-2.7557,,True
1759741582.654,2025-10-06 10:06:22.653,0.05,-0.0081,0.8801,2.542,-0.2672,-2.5649,,True
1759741582.785,2025-10-06 10:06:22.785,0.054,-0.0068,0.8801,2.3817,-0.1069,-2.5191,,True
1759741582.916,2025-10-06 10:06:22.916,0.0525,-0.0112,0.8857,2.4885,-0.0763,-2.4504,,True
1759741583.048,2025-10-06 10:06:23.047,0.054,-0.0105,0.8779,2.2214,-0.0458,-2.5267,,True
1759741583.187,2025-10-06 10:06:23.187,0.0542,-0.0071,0.8708,2.458,-0.0534,-2.7252,,True
1759741583.319,2025-10-06 10:06:23.318,0.0505,-0.0095,0.8772,2.4733,-0.1145,-2.4046,,True
1759741583.451,2025-10-06 10:06:23.450,0.0515,-0.0066,0.8777,2.5038,0.9313,-2.5038,,True
1759741583.59,2025-10-06 10:06:23.589,0.0525,-0.0056,0.8772,2.3893,-0.229,-2.5191,,True
1759741583.722,2025-10-06 10:06:23.721,0.053,-0.002,0.8782,2.3817,-0.1756,-2.8702,,True
1759741583.854,2025-10-06 10:06:23.853,0.0535,-0.0063,0.8838,2.3817,0.1832,-2.7481,,True
1759741583.993,2025-10-06 10:06:23.992,0.0491,-0.0071,0.8865,2.3282,0.0382,-2.6489,,True
1759741584.125,2025-10-06 10:06:24.124,0.0505,-0.0095,0.8792,2.2366,0.0,-2.7634,,True
1759741584.27,2025-10-06 10:06:24.269,0.053,-0.011,0.876,2.7481,-0.2519,-2.6641,,True
1759741584.406,2025-10-06 10:06:24.406,0.0505,-0.0103,0.8713,2.4809,0.0687,-2.6565,,True
1759741584.538,2025-10-06 10:06:24.538,0.0508,-0.0054,0.8845,2.5573,-0.2748,-2.8244,,True
1759741584.676,2025-10-06 10:06:24.676,0.0537,-0.0076,0.8782,2.4198,0.0458,-2.7481,,True
1759741584.807,2025-10-06 10:06:24.807,0.0518,-0.0068,0.8828,2.5344,-0.313,-2.5802,,True
1759741584.939,2025-10-06 10:06:24.939,0.0549,-0.0081,0.8728,2.5344,-0.0305,-2.5802,,True
1759741585.077,2025-10-06 10:06:25.077,0.0515,-0.0078,0.8835,2.4504,-0.1832,-2.7328,,True
1759741585.208,2025-10-06 10:06:25.208,0.0532,-0.0127,0.8792,2.458,-0.0992,-2.6031,,True
1759741585.347,2025-10-06 10:06:25.347,0.054,-0.0105,0.8833,2.5038,-0.0229,-2.687,,True
1759741585.478,2025-10-06 10:06:25.477,0.0503,-0.0056,0.8811,2.3664,-0.3664,-2.6336,,True
1759741585.607,2025-10-06 10:06:25.607,0.0527,-0.0093,0.8755,2.5191,-0.0534,-2.6947,,True
1759741585.737,2025-10-06 10:06:25.737,0.0498,-0.0071,0.8823,2.2901,-0.3511,-2.6107,,True
1759741585.867,2025-10-06 10:06:25.867,0.0535,-0.0056,0.8796,2.4275,-0.1298,-2.5725,,True
1759741585.997,2025-10-06 10:06:25.997,0.0569,-0.0054,0.8804,2.4275,-0.2061,-2.6183,,True
1759741586.128,2025-10-06 10:06:26.127,0.0474,-0.0073,0.8843,2.4656,-0.4275,-2.5649,,True
1759741586.259,2025-10-06 10:06:26.258,0.0542,-0.0068,0.8855,2.5344,-0.0305,-2.4427,,True
1759741586.398,2025-10-06 10:06:26.397,0.052,-0.0093,0.8828,2.0992,-0.0153,-2.7099,,True
1759741586.53,2025-10-06 10:06:26.529,0.054,-0.0042,0.8835,2.4504,-0.4275,-2.3817,,True
1759741586.668,2025-10-06 10:06:26.667,0.0532,-0.0071,0.8794,2.4656,-0.2748,-2.687,,True
1759741586.798,2025-10-06 10:06:26.797,0.0542,-0.0103,0.875,2.2519,0.6565,-2.771,,True
1759741586.928,2025-10-06 10:06:26.927,0.0564,-0.009,0.8777,2.7557,0.0916,-2.4885,,True
1759741587.06,2025-10-06 10:06:27.059,0.0522,-0.0088,0.8748,2.2977,0.2137,-2.6947,,True
1759741587.198,2025-10-06 10:06:27.197,0.0496,-0.0044,0.8821,2.5649,0.0229,-2.4427,,True
1759741587.328,2025-10-06 10:06:27.327,0.05,-0.0112,0.8782,2.4656,-0.0382,-2.7176,,True
1759741587.466,2025-10-06 10:06:27.466,0.0518,-0.0076,0.8789,2.5115,-1.0305,-2.8092,,True
1759741587.597,2025-10-06 10:06:27.596,0.0554,-0.0083,0.8799,2.4122,1.9389,-2.6641,,True
1759741587.729,2025-10-06 10:06:27.728,0.0525,-0.0071,0.8792,2.4809,-0.8168,-2.6641,,True
1759741587.867,2025-10-06 10:06:27.866,0.0532,-0.0078,0.8821,2.3511,0.0916,-2.6336,,True
1759741587.997,2025-10-06 10:06:27.996,0.0542,-0.0103,0.8762,2.5802,-0.1832,-2.5725,,True
1759741588.129,2025-10-06 10:06:28.129,0.054,-0.0054,0.8853,2.4351,0.0992,-2.7557,,True
1759741588.277,2025-10-06 10:06:28.276,0.0515,-0.0042,0.8784,2.4046,-0.0458,-2.6641,,True
1759741588.406,2025-10-06 10:06:28.405,0.051,-0.0083,0.8806,2.4122,-0.2061,-2.5191,,True
1759741588.536,2025-10-06 10:06:28.535,0.0535,-0.0088,0.8792,2.5725,-0.2977,-2.8321,,True
1759741588.666,2025-10-06 10:06:28.666,0.0537,-0.0054,0.8794,2.2901,0.0305,-2.7863,,True
1759741588.796,2025-10-06 10:06:28.796,0.0564,-0.0095,0.8774,2.4427,-0.1527,-2.6336,,True
1759741588.927,2025-10-06 10:06:28.926,0.0491,-0.0085,0.8809,2.6107,0.4885,-2.3969,,True
1759741589.057,2025-10-06 10:06:29.056,0.0552,-0.0054,0.8689,2.3511,-0.0382,-2.8397,,True
1759741589.195,2025-10-06 10:06:29.195,0.0454,-0.0054,0.8862,2.5878,-1.2977,-2.687,,True
1759741589.326,2025-10-06 10:06:29.326,0.0659,-0.0037,0.8931,-0.0687,-14.1603,-0.6947,,True
1759741589.458,2025-10-06 10:06:29.458,0.0024,0.0178,0.9551,1.6031,2.626,-2.2672,,True
1759741589.597,2025-10-06 10:06:29.597,0.0764,-0.0083,0.8735,2.6183,0.1832,-2.6641,,True
1759741589.728,2025-10-06 10:06:29.728,0.071,-0.0076,0.8821,2.3664,-0.1374,-2.6183,,True
1759741589.867,2025-10-06 10:06:29.867,0.0732,-0.0088,0.8755,2.3588,-0.1679,-3.1221,,True
1759741589.999,2025-10-06 10:06:29.998,0.0713,-0.0059,0.886,2.5344,0.0,-3.9847,,True
1759741590.131,2025-10-06 10:06:30.130,0.0723,-0.0063,0.8865,2.2824,-0.2748,-2.6947,,True
1759741590.28,2025-10-06 10:06:30.279,0.0745,-0.0049,0.8772,2.7405,-0.1069,-2.626,,True
1759741590.412,2025-10-06 10:06:30.412,0.0703,0.0,0.8777,2.5267,-0.4504,-2.6641,,True
1759741590.551,2025-10-06 10:06:30.551,0.0681,-0.0027,0.8718,2.2519,0.1527,-2.5191,,True
1759741590.683,2025-10-06 10:06:30.682,0.0686,-0.0051,0.8799,2.1756,-0.0916,-2.7634,,True
1759741590.815,2025-10-06 10:06:30.814,0.0742,-0.0073,0.886,2.4962,-0.2519,-2.5878,,True
1759741590.954,2025-10-06 10:06:30.953,0.0735,-0.0076,0.8682,2.5954,-0.0687,-2.7252,,True
1759741591.085,2025-10-06 10:06:31.085,0.0718,-0.0061,0.8779,2.5115,-0.0458,-2.6412,,True
1759741591.217,2025-10-06 10:06:31.217,0.0718,0.0,0.8787,2.2977,-0.0611,-2.8244,,True
1759741591.357,2025-10-06 10:06:31.356,0.0732,-0.0024,0.8416,2.1679,-0.084,-2.687,,True
1759741591.488,2025-10-06 10:06:31.488,0.0693,0.0,0.8813,2.0382,0.1908,-2.5802,,True
1759741591.627,2025-10-06 10:06:31.627,0.0725,-0.0027,0.8838,2.4809,-0.3282,-2.6183,,True
1759741591.759,2025-10-06 10:06:31.759,0.0698,-0.0051,0.877,2.5115,-0.229,-2.6718,,True
1759741591.891,2025-10-06 10:06:31.891,0.0742,0.0027,0.8789,2.374,-0.1221,-2.5038,,False
1759741592.031,2025-10-06 10:06:32.030,0.0742,-0.0054,0.8801,2.3817,-0.1985,-2.7023,,False
1759741592.164,2025-10-06 10:06:32.164,0.073,-0.0044,0.8774,2.5802,-0.084,-2.8321,,False
1759741592.314,2025-10-06 10:06:32.314,0.0747,-0.0044,0.8835,2.1756,0.0534,-2.6718,,False
1759741592.446,2025-10-06 10:06:32.445,0.0691,-0.0027,0.8826,2.5344,-0.1069,-2.5649,,False
1759741592.577,2025-10-06 10:06:32.577,0.073,-0.0071,0.8833,2.2137,0.1069,-2.3435,,False
1759741592.709,2025-10-06 10:06:32.709,0.0696,-0.0029,0.8794,2.6412,-0.1527,-2.6412,,False
1759741592.841,2025-10-06 10:06:32.841,0.0713,-0.0029,0.8757,2.5267,-0.0229,-2.8092,,False
1759741592.973,2025-10-06 10:06:32.972,0.0767,-0.0044,0.877,2.626,0.0305,-2.6107,,False
1759741593.112,2025-10-06 10:06:33.112,0.074,-0.0051,0.8804,2.6183,-0.2824,-2.4656,,False
1759741593.244,2025-10-06 10:06:33.244,0.0732,-0.0037,0.8704,2.5115,-0.1221,-2.6947,,False
1759741593.377,2025-10-06 10:06:33.376,0.0662,-0.0049,0.8816,2.542,-0.2443,-2.7176,,False
1759741593.516,2025-10-06 10:06:33.516,0.0728,-0.0017,0.8738,2.2366,0.1908,-2.5725,,False
1759741593.649,2025-10-06 10:06:33.649,0.0701,-0.0029,0.8782,2.3435,-0.1298,-2.313,,False
1759741593.781,2025-10-06 10:06:33.781,0.0723,-0.0034,0.8809,2.4656,-0.2366,-2.5496,,False
1759741593.906,2025-10-06 10:06:33.905,0.0732,-0.0012,0.8723,2.3969,0.0763,-2.6565,,False
1759741594.048,2025-10-06 10:06:34.047,0.0757,-0.0034,0.8777,2.2672,-0.1221,-2.8473,,False
1759741594.186,2025-10-06 10:06:34.186,0.0728,-0.0066,0.8792,2.5191,0.084,-2.5649,,False
1759741594.328,2025-10-06 10:06:34.328,0.0762,-0.0024,0.8796,2.4504,-0.0611,-2.7099,,False
1759741594.461,2025-10-06 10:06:34.461,0.0737,-0.0063,0.8833,2.3206,-0.0153,-2.7328,,False
1759741594.593,2025-10-06 10:06:34.593,0.0723,-0.0059,0.8801,2.6031,0.0611,-2.7634,,False
1759741594.725,2025-10-06 10:06:34.725,0.0752,-0.0071,0.8745,2.5573,0.0076,-2.6489,,False
1759741594.859,2025-10-06 10:06:34.858,0.0732,-0.0059,0.8787,2.6489,-0.1145,-2.4656,,False
1759741594.999,2025-10-06 10:06:34.998,0.071,-0.0063,0.8801,2.3817,-0.1832,-2.8092,,False
1759741595.131,2025-10-06 10:06:35.131,0.075,-0.0049,0.8789,2.5649,-0.1832,-2.6031,,False
1759741595.263,2025-10-06 10:06:35.262,0.0725,-0.0032,0.8826,2.2672,0.2214,-2.8321,,False
1759741595.405,2025-10-06 10:06:35.404,0.071,-0.0027,0.8855,2.3435,-0.1527,-2.7252,,False
1759741595.537,2025-10-06 10:06:35.536,0.0701,-0.0046,0.8774,2.458,0.0611,-2.7252,,False
1759741595.681,2025-10-06 10:06:35.680,0.0723,-0.0042,0.8787,2.3435,-0.3664,-2.8702,,False
1759741595.813,2025-10-06 10:06:35.812,0.0718,-0.0071,0.8733,2.4046,0.0305,-2.6489,,False
1759741595.944,2025-10-06 10:06:35.943,0.0703,-0.0076,0.8809,2.2595,0.0153,-2.458,,False
1759741596.083,2025-10-06 10:06:36.083,0.0725,-0.0027,0.8787,2.4275,-0.0916,-2.626,,False
1759741596.215,2025-10-06 10:06:36.215,0.0693,-0.0046,0.8784,2.5649,-0.1145,-2.6489,,False
1759741596.366,2025-10-06 10:06:36.365,0.0703,-0.0037,0.8828,2.542,-0.1145,-2.6641,,False
1759741596.505,2025-10-06 10:06:36.505,0.0691,0.0002,0.8745,2.5344,-0.2901,-2.7634,,False
1759741596.639,2025-10-06 10:06:36.638,0.0713,-0.0012,0.8801,2.458,0.1221,-2.6336,,False
1759741596.763,2025-10-06 10:06:36.763,0.0715,-0.0051,0.8816,2.5878,0.2977,-2.626,,False
1759741596.888,2025-10-06 10:06:36.887,0.0745,-0.0049,0.874,2.4656,0.0,-2.5878,,False
1759741597.028,2025-10-06 10:06:37.028,0.0757,-0.0044,0.8813,2.313,0.0,-2.7557,,False
1759741597.16,2025-10-06 10:06:37.159,0.0735,-0.0056,0.8865,2.084,0.1985,-2.8397,,False
1759741597.293,2025-10-06 10:06:37.292,0.0747,-0.0071,0.8728,2.5954,-0.0382,-2.5802,,False
1759741597.417,2025-10-06 10:06:37.417,0.0693,-0.001,0.8792,2.6794,-0.1145,-2.5649,,False
1759741597.558,2025-10-06 10:06:37.558,0.0774,-0.0061,0.8743,2.458,-0.3588,-2.8473,,False
1759741597.692,2025-10-06 10:06:37.691,0.0703,-0.0056,0.8708,2.4122,-0.1298,-2.5878,,False
1759741597.832,2025-10-06 10:06:37.832,0.0713,-0.0037,0.8806,2.374,0.084,-2.5038,,False
1759741597.963,2025-10-06 10:06:37.963,0.0696,-0.0034,0.8823,2.5191,-0.1832,-2.6183,,False
1759741598.095,2025-10-06 10:06:38.094,0.0774,-0.0039,0.8735,2.5267,0.0229,-2.5344,,False
1759741598.235,2025-10-06 10:06:38.235,0.074,-0.0046,0.877,2.3511,0.145,-2.7634,,False
1759741598.369,2025-10-06 10:06:38.368,0.0742,-0.0032,0.8782,2.542,-0.2672,-2.7176,,False
1759741598.502,2025-10-06 10:06:38.501,0.0713,-0.0037,0.8816,2.5115,-0.0611,-2.5802,,False
1759741598.634,2025-10-06 10:06:38.633,0.0754,-0.0039,0.877,2.6641,-0.0611,-2.4275,,False
1759741598.765,2025-10-06 10:06:38.764,0.0725,-0.0068,0.877,2.4198,-0.0687,-2.4962,,False
1759741598.906,2025-10-06 10:06:38.905,0.0706,-0.0083,0.8833,2.7405,-0.1756,-2.687,,False
1759741599.038,2025-10-06 10:06:39.037,0.0703,-0.0059,0.8796,2.5267,-0.1832,-2.7557,,False
1759741599.163,2025-10-06 10:06:39.162,0.0752,-0.0042,0.8767,2.3435,0.0153,-2.5573,,False
1759741599.287,2025-10-06 10:06:39.286,0.0703,-0.0039,0.8838,2.4275,-0.0305,-2.5954,,False
1759741599.427,2025-10-06 10:06:39.427,0.071,-0.0042,0.8857,2.4046,-0.1145,-2.4885,,False
1759741599.56,2025-10-06 10:06:39.560,0.0728,-0.0063,0.8704,2.3588,0.0992,-2.7634,,False
1759741599.693,2025-10-06 10:06:39.693,0.072,-0.0037,0.8865,2.2824,-0.0305,-2.8321,,False
1759741599.834,2025-10-06 10:06:39.834,0.0737,-0.0022,0.8813,2.4046,-0.2901,-2.8244,,False
1759741599.967,2025-10-06 10:06:39.966,0.0723,-0.0063,0.8774,2.6183,0.1069,-2.3969,,False
1759741600.099,2025-10-06 10:06:40.098,0.0752,-0.0022,0.8828,2.6107,-0.1756,-2.3969,,False
1759741600.23,2025-10-06 10:06:40.229,0.0732,-0.0039,0.8875,2.374,-0.0305,-2.7557,,False
1759741600.361,2025-10-06 10:06:40.361,0.0725,-0.0037,0.8828,2.2137,0.0916,-2.6947,,False
1759741600.502,2025-10-06 10:06:40.502,0.0718,-0.0032,0.8835,2.3282,-0.1145,-2.7405,,False
1759741600.643,2025-10-06 10:06:40.643,0.0742,-0.0051,0.8767,2.4809,-0.1145,-2.5267,,False
1759741600.776,2025-10-06 10:06:40.775,0.0732,-0.0049,0.8813,2.3893,-0.084,-2.6031,,False
1759741600.916,2025-10-06 10:06:40.916,0.0791,-0.0044,0.873,2.1832,-0.145,-2.5954,,False
1759741601.054,2025-10-06 10:06:41.053,0.075,-0.01,0.8779,2.3282,-0.084,-2.5496,,False
1759741601.178,2025-10-06 10:06:41.178,0.0718,-0.002,0.8862,2.1069,-0.2137,-2.771,,False
1759741601.317,2025-10-06 10:06:41.316,0.073,-0.0032,0.8777,2.1908,0.1069,-2.7634,,False
1759741601.455,2025-10-06 10:06:41.455,0.0745,-0.0007,0.8762,2.4504,-0.2672,-2.542,,False
1759741601.577,2025-10-06 10:06:41.577,0.0767,-0.0017,0.8855,2.5267,-0.0076,-2.6718,,False
1759741601.703,2025-10-06 10:06:41.702,0.071,-0.0049,0.8816,2.5878,-0.084,-2.5115,,False
1759741601.827,2025-10-06 10:06:41.827,0.072,-0.0032,0.8787,2.6412,-0.313,-2.6336,,False
1759741601.952,2025-10-06 10:06:41.951,0.0696,-0.0032,0.8867,2.5725,-0.3664,-2.8244,,False
1759741602.082,2025-10-06 10:06:42.082,0.0745,-0.0061,0.8743,2.4885,-0.2443,-2.626,,False
1759741602.215,2025-10-06 10:06:42.215,0.0728,-0.0059,0.8799,2.5878,-0.084,-2.6794,,False
1759741602.356,2025-10-06 10:06:42.356,0.0706,0.0012,0.8774,2.4427,0.1756,-2.5802,,False
1759741602.488,2025-10-06 10:06:42.488,0.0769,-0.0044,0.8804,2.3969,-0.2061,-2.6336,,False
1759741602.627,2025-10-06 10:06:42.627,0.0764,-0.0063,0.8708,2.3893,-0.0076,-2.5115,,False
1759741602.765,2025-10-06 10:06:42.765,0.0745,-0.0029,0.8779,2.2901,0.0,-2.6336,,False
1759741602.89,2025-10-06 10:06:42.889,0.0767,-0.0049,0.8735,2.5802,-0.0534,-2.7481,,False
1759741603.028,2025-10-06 10:06:43.028,0.0312,-0.0093,0.8958,2.6565,2.1832,9.4427,,False
1759741603.165,2025-10-06 10:06:43.164,0.0691,-0.0068,0.8823,2.1527,4.1603,-2.5496,,False
1759741603.289,2025-10-06 10:06:43.289,0.0498,-0.0051,0.8787,2.1527,4.1527,-2.5954,,False
1759741603.414,2025-10-06 10:06:43.413,0.0503,-0.0112,0.8767,2.2824,3.0229,-2.3053,,False
1759741603.538,2025-10-06 10:06:43.538,0.0474,-0.0093,0.8806,2.313,-1.4427,-2.7557,,False
1759741603.663,2025-10-06 10:06:43.662,0.0571,-0.0039,0.8823,2.9466,-6.2901,-2.5649,,False
1759741603.787,2025-10-06 10:06:43.786,0.0527,-0.0039,0.8848,2.3969,3.5725,-2.6031,,False
1759741603.911,2025-10-06 10:06:43.911,0.0476,-0.0083,0.8857,2.2137,0.313,-2.6718,,False
1759741604.045,2025-10-06 10:06:44.045,0.0569,-0.0066,0.8816,2.3893,-1.5954,-2.5878,,False
1759741604.169,2025-10-06 10:06:44.169,0.0498,-0.0054,0.8816,2.4122,1.7023,-2.5496,,False
1759741604.294,2025-10-06 10:06:44.293,0.05,-0.0049,0.8801,2.2901,-1.2214,-2.8092,,False
1759741604.42,2025-10-06 10:06:44.419,0.0498,-0.0056,0.8835,2.3664,-0.7863,-2.4122,,False
1759741604.545,2025-10-06 10:06:44.544,0.0601,-0.0042,0.874,2.4351,-1.7634,-2.4275,,False
1759741604.687,2025-10-06 10:06:44.686,0.0505,-0.0066,0.8782,2.374,-1.4962,-2.5954,,True
1759741604.819,2025-10-06 10:06:44.818,0.0549,-0.0073,0.8767,2.4427,-1.0992,-2.6794,,True
1759741604.959,2025-10-06 10:06:44.958,0.0564,-0.0066,0.8823,2.6794,0.1603,-2.6336,,True
1759741605.091,2025-10-06 10:06:45.090,0.0581,-0.0037,0.8794,2.2824,1.0992,-2.3511,,True
1759741605.228,2025-10-06 10:06:45.227,0.061,-0.0049,0.876,2.3282,-0.1221,-2.687,,True
1759741605.364,2025-10-06 10:06:45.363,0.0598,-0.0068,0.8833,2.6641,0.0,-2.7405,,True
1759741605.496,2025-10-06 10:06:45.495,0.0547,-0.0078,0.885,2.4733,-0.1679,-2.3893,,True
1759741605.629,2025-10-06 10:06:45.628,0.0598,-0.0083,0.8784,2.229,-0.7023,-2.5038,,True
1759741605.761,2025-10-06 10:06:45.760,0.0581,-0.0066,0.8872,2.6107,0.1374,-2.6336,,True
1759741605.892,2025-10-06 10:06:45.892,0.0613,-0.0054,0.8806,2.1679,0.7176,-2.6107,,True
1759741606.033,2025-10-06 10:06:46.033,0.0635,-0.0066,0.8694,2.3969,-0.1832,-2.6336,,True
1759741606.166,2025-10-06 10:06:46.166,0.0654,-0.0056,0.8916,2.5496,-0.9389,-2.6565,,True
1759741606.307,2025-10-06 10:06:46.306,0.063,-0.0066,0.8853,2.5725,0.084,-2.6183,,True
1759741606.438,2025-10-06 10:06:46.438,0.062,-0.0051,0.8818,2.4275,0.1603,-2.5954,,True
1759741606.569,2025-10-06 10:06:46.568,0.0657,-0.0054,0.8779,2.4504,-0.5038,-2.7939,,True
1759741606.701,2025-10-06 10:06:46.700,0.0598,-0.0059,0.8755,2.5573,-0.6031,-2.6641,,True
1759741606.833,2025-10-06 10:06:46.832,0.0671,-0.0083,0.8779,2.2672,-0.4427,-2.9466,,True
1759741606.964,2025-10-06 10:06:46.964,0.0627,-0.0088,0.8777,2.2366,-0.3435,-2.4351,,True
1759741607.095,2025-10-06 10:06:47.095,0.061,-0.0071,0.8733,2.4351,0.5954,-2.7557,,True
1759741607.227,2025-10-06 10:06:47.227,0.0615,-0.0005,0.8704,2.5573,0.0,-2.7557,,True
1759741607.359,2025-10-06 10:06:47.359,0.0684,-0.0054,0.8701,2.374,0.3893,-2.855,,True
1759741607.493,2025-10-06 10:06:47.492,0.0623,-0.0046,0.8794,2.5725,-0.5038,-2.8397,,True
1759741607.618,2025-10-06 10:06:47.618,0.0662,-0.0078,0.8745,2.3282,0.2061,-2.6183,,True
1759741607.758,2025-10-06 10:06:47.757,0.0627,-0.0063,0.8884,2.3282,0.0,-2.916,,True
1759741607.898,2025-10-06 10:06:47.898,0.0657,-0.0034,0.8794,2.4122,-0.084,-2.374,,True
1759741608.023,2025-10-06 10:06:48.022,0.064,-0.0034,0.8811,2.2977,0.3664,-2.6489,,True
1759741608.165,2025-10-06 10:06:48.164,0.0654,-0.011,0.8772,2.5191,-0.6794,-2.5954,,True
1759741608.297,2025-10-06 10:06:48.296,0.062,-0.0044,0.8794,2.4351,-0.1679,-2.4198,,True
1759741608.421,2025-10-06 10:06:48.420,0.0679,-0.0056,0.8884,2.5496,-0.1985,-2.6565,,True
1759741608.552,2025-10-06 10:06:48.552,0.0642,-0.0059,0.8826,2.4275,-0.1221,-2.7939,,True
1759741608.692,2025-10-06 10:06:48.692,0.0623,-0.0024,0.8784,2.5649,-0.0763,-2.771,,True
1759741608.841,2025-10-06 10:06:48.841,0.0603,-0.0054,0.8882,2.3435,0.6794,-2.3359,,True
1759741608.973,2025-10-06 10:06:48.973,0.0657,-0.0066,0.8816,2.6794,-0.2977,-2.5954,,True
1759741609.116,2025-10-06 10:06:49.115,0.0674,-0.0012,0.8735,2.374,0.0916,-2.7863,,True
1759741609.249,2025-10-06 10:06:49.249,0.0664,-0.0073,0.8843,2.5115,-0.3893,-2.855,,True
1759741609.374,2025-10-06 10:06:49.374,0.0632,-0.0042,0.8787,2.4275,-0.0229,-2.8168,,True
1759741609.506,2025-10-06 10:06:49.505,0.0679,-0.0046,0.876,2.2595,0.0153,-2.6107,,True
1759741609.638,2025-10-06 10:06:49.637,0.0667,-0.0078,0.885,2.3282,-0.0229,-2.5038,,True
1759741609.771,2025-10-06 10:06:49.771,0.0647,-0.0051,0.876,2.5573,0.1145,-2.7634,,True
1759741609.912,2025-10-06 10:06:49.911,0.0669,-0.0049,0.8818,2.4122,-0.2672,-2.7023,,True
1759741610.045,2025-10-06 10:06:50.044,0.0649,-0.0078,0.8796,2.458,0.2519,-2.7786,,True
1759741610.169,2025-10-06 10:06:50.169,0.0654,-0.0029,0.8823,2.4809,-0.5267,-2.5573,,True
1759741610.301,2025-10-06 10:06:50.301,0.0667,-0.0017,0.8774,2.3511,-0.0534,-2.7481,,True
1759741610.44,2025-10-06 10:06:50.440,0.0684,-0.0037,0.8813,2.2901,-0.1527,-2.5267,,True
1759741610.572,2025-10-06 10:06:50.572,0.0662,-0.0081,0.8821,2.4504,-1.0,-2.5115,,True
1759741610.703,2025-10-06 10:06:50.703,0.0642,-0.0051,0.8777,2.4809,-0.1145,-2.7405,,True
1759741610.843,2025-10-06 10:06:50.842,0.0657,-0.0056,0.8765,2.084,-0.3893,-2.6031,,True
1759741610.975,2025-10-06 10:06:50.974,0.0679,-0.0049,0.8838,2.3969,0.0,-2.6336,,True
1759741611.107,2025-10-06 10:06:51.107,0.0676,-0.0068,0.8826,2.3282,0.1527,-2.5267,,True
1759741611.238,2025-10-06 10:06:51.238,0.0691,-0.009,0.8794,2.4275,0.0763,-2.5954,,True
1759741611.372,2025-10-06 10:06:51.371,0.0657,-0.0056,0.875,2.4504,-0.2672,-2.6794,,True
1759741611.504,2025-10-06 10:06:51.503,0.0696,-0.0044,0.8779,2.3282,-0.1069,-2.7328,,True
1759741611.636,2025-10-06 10:06:51.635,0.0674,-0.0056,0.8806,2.4809,0.0458,-2.6107,,True
1759741611.769,2025-10-06 10:06:51.769,0.0686,-0.0085,0.8779,2.5191,0.0076,-2.6107,,True
1759741611.917,2025-10-06 10:06:51.916,0.0627,-0.0063,0.8833,2.2901,-0.2595,-2.7786,,True
1759741612.049,2025-10-06 10:06:52.048,0.0662,-0.0051,0.8804,2.4122,-0.1374,-2.5878,,True
1759741612.181,2025-10-06 10:06:52.181,0.0647,-0.0054,0.8782,2.4504,-0.1145,-2.7557,,True
1759741612.313,2025-10-06 10:06:52.312,0.0659,-0.0054,0.8772,2.2672,-0.2061,-2.7328,,True
1759741612.444,2025-10-06 10:06:52.443,0.0652,-0.0083,0.8772,2.7634,-0.145,-2.6794,,True
1759741612.575,2025-10-06 10:06:52.575,0.0693,-0.0071,0.8813,2.4198,-0.0458,-2.6794,,True
1759741612.706,2025-10-06 10:06:52.705,0.0662,-0.0078,0.8823,2.1756,-0.1069,-2.5191,,True
1759741612.84,2025-10-06 10:06:52.839,0.0671,-0.0042,0.8809,2.3817,-0.1221,-2.7786,,True
1759741612.98,2025-10-06 10:06:52.979,0.0684,-0.0046,0.8843,2.313,-0.1908,-2.5344,,True
1759741613.112,2025-10-06 10:06:53.111,0.0664,-0.0054,0.8743,2.3511,-0.2061,-2.5496,,True
1759741613.242,2025-10-06 10:06:53.242,0.0662,-0.0059,0.8831,2.4962,-0.2748,-2.542,,True
1759741613.374,2025-10-06 10:06:53.374,0.0698,-0.002,0.8882,2.687,0.0992,-2.6718,,True
1759741613.506,2025-10-06 10:06:53.506,0.2522,0.1431,0.7271,-27.6947,37.7023,-10.5802,,True
1759741613.638,2025-10-06 10:06:53.638,-0.052,0.071,1.0403,-3.1527,-5.6641,-17.3664,,True
1759741613.771,2025-10-06 10:06:53.770,0.074,-0.0049,0.8823,2.5496,0.1756,-2.7939,,True
1759741613.902,2025-10-06 10:06:53.902,0.0728,-0.0071,0.8738,2.3511,-0.145,-2.6794,,True
1759741614.042,2025-10-06 10:06:54.042,0.0679,-0.0037,0.8774,2.4733,-0.0153,-2.7481,,True
1759741614.175,2025-10-06 10:06:54.174,0.0735,-0.0012,0.8711,2.4504,0.0458,-2.855,,True
1759741614.316,2025-10-06 10:06:54.316,0.0703,-0.0042,0.8748,2.3588,-0.0763,-2.4122,,True
1759741614.45,2025-10-06 10:06:54.450,0.0706,-0.0054,0.8875,2.458,-0.2214,-2.8015,,True
1759741614.574,2025-10-06 10:06:54.574,0.0718,0.0015,0.884,2.7023,-0.2824,-2.5649,,True
1759741614.715,2025-10-06 10:06:54.714,0.0693,-0.0027,0.8774,2.5038,-0.0229,-2.7252,,True
1759741614.848,2025-10-06 10:06:54.847,0.0715,-0.0042,0.8777,2.542,-0.084,-2.6718,,True
1759741614.989,2025-10-06 10:06:54.989,0.0718,-0.0051,0.8684,2.313,-0.0611,-2.7557,,True
1759741615.122,2025-10-06 10:06:55.122,0.075,-0.0076,0.8779,2.3053,0.0076,-2.7481,,True
1759741615.264,2025-10-06 10:06:55.263,0.0691,-0.0098,0.8755,2.4427,-0.374,-2.5954,,True
1759741615.397,2025-10-06 10:06:55.396,0.0752,-0.0032,0.8782,2.4962,-0.1221,-2.6565,,True
1759741615.521,2025-10-06 10:06:55.521,0.071,0.0032,0.8794,2.4351,0.0611,-2.6336,,True
1759741615.646,2025-10-06 10:06:55.645,0.075,-0.0037,0.8767,2.4351,0.0534,-2.8168,,True
1759741615.787,2025-10-06 10:06:55.786,0.071,-0.0037,0.8774,2.5573,0.0916,-2.6489,,True
1759741615.92,2025-10-06 10:06:55.919,0.071,-0.0044,0.8806,2.2824,-0.0076,-2.6947,,True
1759741616.062,2025-10-06 10:06:56.062,0.071,-0.0022,0.8845,2.2901,-0.2366,-2.6794,,False
1759741616.21,2025-10-06 10:06:56.209,0.0732,0.0005,0.8855,2.4885,0.2137,-2.771,,False
1759741616.341,2025-10-06 10:06:56.341,0.0723,-0.0068,0.8755,2.2595,-0.0992,-2.6947,,False
1759741616.474,2025-10-06 10:06:56.473,0.0737,-0.0027,0.8691,2.4885,-0.1603,-2.5954,,False
1759741616.609,2025-10-06 10:06:56.608,0.0747,-0.0061,0.8831,2.3588,-0.2519,-2.626,,False
1759741616.74,2025-10-06 10:06:56.740,0.0737,0.0007,0.8857,2.4809,-0.4656,-2.6031,,False
