timestamp,datetime,ax,ay,az,gx,gy,gz,temp,bpm,spo2,finger_detected
1759743231.144,2025-10-06 10:33:51.143,0.1042,0.0,0.8643,2.9542,0.9237,-2.6794,45.24,0,,False
1759743231.276,2025-10-06 10:33:51.276,0.1045,-0.0012,0.8652,0.6183,-3.916,-2.4809,45.61,0,,False
1759743231.409,2025-10-06 10:33:51.408,0.0854,0.0129,0.9092,0.1145,-4.3817,-2.5115,45.61,0,,False
1759743231.541,2025-10-06 10:33:51.541,0.092,0.002,0.8616,1.5496,30.7863,-2.5878,45.09,0,,False
1759743231.673,2025-10-06 10:33:51.673,0.0859,0.0015,0.8735,2.8702,-18.4656,-3.0076,45.09,0,,False
1759743231.806,2025-10-06 10:33:51.805,0.0696,0.0105,0.8977,1.7023,-10.7099,-2.5878,45.33,0,,False
1759743231.938,2025-10-06 10:33:51.938,0.1663,0.0171,0.8789,2.5649,-11.916,-6.4504,45.24,0,,False
1759743232.066,2025-10-06 10:33:52.066,0.051,0.0022,0.8892,3.3893,0.8473,-2.5725,45.33,0,,False
1759743232.195,2025-10-06 10:33:52.194,0.0664,-0.0544,0.8853,1.5725,10.5954,-11.1985,45.57,0,,False
1759743232.327,2025-10-06 10:33:52.327,0.0388,0.0068,0.8877,1.6565,-10.1908,-2.5344,45.19,0,,False
1759743232.46,2025-10-06 10:33:52.459,0.083,0.0034,0.8774,2.7176,-5.1221,-2.5573,45.33,0,,False
1759743232.588,2025-10-06 10:33:52.588,0.0776,0.0046,0.8816,3.2748,18.2595,-2.5573,45.38,0,,False
1759743232.716,2025-10-06 10:33:52.716,0.0247,-0.0349,0.9106,4.0,-23.2061,3.1221,45.61,0,,False
1759743232.849,2025-10-06 10:33:52.848,0.1843,-0.0024,0.8647,28.3511,-48.5038,8.3435,45.09,0,,False
1759743232.982,2025-10-06 10:33:52.982,0.2334,0.1433,0.8857,21.1832,-25.1374,2.7023,45.24,0,,False
1759743233.111,2025-10-06 10:33:53.111,0.3408,0.0879,0.8547,12.8015,-42.0916,3.0,45.61,0,,False
1759743233.25,2025-10-06 10:33:53.249,0.3025,0.1094,0.752,14.5191,-8.3435,10.5115,45.52,0,,False
1759743233.389,2025-10-06 10:33:53.388,0.4194,0.1206,0.8511,-3.8931,-10.7557,18.084,45.38,0,,False
1759743233.526,2025-10-06 10:33:53.526,0.4431,0.0957,0.7822,-4.9313,-15.8092,25.6336,45.52,0,,False
1759743233.665,2025-10-06 10:33:53.664,0.4104,0.0747,0.7686,2.1756,16.6107,5.3282,45.75,0,,False
1759743233.797,2025-10-06 10:33:53.796,0.4961,0.0325,0.7427,-2.8702,-10.5496,19.6947,45.52,0,,False
1759743233.935,2025-10-06 10:33:53.934,0.4849,0.0449,0.6914,12.8015,-13.2824,7.5573,45.33,0,,False
1759743234.065,2025-10-06 10:33:54.064,0.5366,0.0002,0.7041,9.2519,-20.4656,-14.5191,45.24,0,,False
1759743234.197,2025-10-06 10:33:54.196,0.5415,0.011,0.6733,-4.3206,-29.7481,1.5267,45.42,0,,False
1759743234.335,2025-10-06 10:33:54.334,0.6155,0.0027,0.6731,4.8855,-19.6794,7.4275,45.38,0,,False
1759743234.465,2025-10-06 10:33:54.464,0.5825,0.0017,0.5889,18.4733,14.0458,-11.6565,45.38,0,,False
1759743234.597,2025-10-06 10:33:54.596,0.6262,0.0068,0.6577,2.4504,-0.5496,1.4733,45.38,0,,False
1759743234.735,2025-10-06 10:33:54.734,0.6101,0.0906,0.6814,6.4122,3.3206,-3.0382,45.42,0,,False
1759743234.865,2025-10-06 10:33:54.864,0.5645,0.0676,0.7043,2.9771,-6.2595,0.3282,45.38,0,,False
1759743234.997,2025-10-06 10:33:54.997,0.5073,0.074,0.7078,-5.2137,-2.6107,3.3817,45.38,39.0,,True
1759743235.135,2025-10-06 10:33:55.134,0.5486,0.0129,0.6877,-10.374,6.771,9.6412,45.24,39.0,,True
1759743235.265,2025-10-06 10:33:55.265,0.5654,-0.009,0.7129,5.2672,-6.0992,-0.3053,45.38,39.0,,True
1759743235.414,2025-10-06 10:33:55.414,0.5459,-0.0205,0.6929,-1.2443,8.3664,1.6718,45.33,39.0,,True
1759743235.543,2025-10-06 10:33:55.543,0.5232,-0.001,0.7092,4.3282,24.5725,-5.0305,45.38,39.0,,True
1759743235.673,2025-10-06 10:33:55.673,0.5117,-0.001,0.7351,-8.6565,37.084,-1.5267,45.38,39.0,,True
1759743235.812,2025-10-06 10:33:55.811,0.4873,-0.0718,0.7241,-8.8092,-32.6336,40.7252,45.42,39.0,,True
1759743235.942,2025-10-06 10:33:55.942,0.5352,-0.0435,0.7112,4.1527,5.4046,-0.145,45.71,38.5,,True
1759743236.075,2025-10-06 10:33:56.074,0.5327,-0.0403,0.7476,5.0305,-2.4198,-0.2137,45.24,38.5,,True
1759743236.213,2025-10-06 10:33:56.212,0.5457,-0.0227,0.7087,7.542,-5.1374,-4.8015,45.38,39.0,,True
1759743236.343,2025-10-06 10:33:56.343,0.541,-0.0259,0.6885,6.6336,-0.2748,-6.6183,45.52,39.0,,True
1759743236.475,2025-10-06 10:33:56.475,0.5793,-0.0217,0.7053,8.2824,-16.6641,2.0,45.38,39.0,,True
1759743236.613,2025-10-06 10:33:56.613,0.5781,-0.0051,0.6658,6.4504,-5.3664,-9.2901,45.38,39.0,,True
1759743236.743,2025-10-06 10:33:56.743,0.6306,-0.0115,0.6765,5.8168,-14.145,-1.5573,45.33,39.0,,True
1759743236.875,2025-10-06 10:33:56.875,0.6128,0.0322,0.6506,4.145,1.0611,-10.7176,45.42,103.5,,True
1759743237.014,2025-10-06 10:33:57.013,0.6455,0.0261,0.6355,-1.1603,-48.6412,4.9084,45.52,125.0,,True
1759743237.144,2025-10-06 10:33:57.143,0.719,0.0232,0.6143,-1.1069,38.5802,-10.1679,45.61,125.0,,True
1759743237.276,2025-10-06 10:33:57.276,0.6704,0.0149,0.6221,4.8779,20.4275,-7.7786,45.61,82.5,,True
1759743237.424,2025-10-06 10:33:57.424,0.6169,0.0354,0.6582,11.1679,12.6412,-14.2214,45.38,103.75,,True
1759743237.556,2025-10-06 10:33:57.556,0.6113,0.0437,0.6653,-0.5954,11.9847,1.0916,45.33,125.0,,True
1759743237.694,2025-10-06 10:33:57.693,0.624,0.0479,0.6743,7.0687,-12.0076,1.3511,45.33,125.0,,True
1759743237.824,2025-10-06 10:33:57.824,0.5996,0.0667,0.6519,6.9389,0.084,-6.5649,45.42,125.0,,True
1759743237.956,2025-10-06 10:33:57.955,0.627,0.0525,0.6638,1.1145,-1.0763,-2.7176,45.38,125.0,,True
1759743238.094,2025-10-06 10:33:58.094,0.6931,0.188,0.689,-7.145,-2.7863,-9.6947,45.24,99.75,,True
1759743238.226,2025-10-06 10:33:58.226,1.9999,1.9999,0.9734,-8.0763,-250.1374,-21.7557,45.42,24.0,,True
1759743238.364,2025-10-06 10:33:58.364,0.5046,-0.1443,0.6438,18.5954,-12.5878,22.2748,45.52,33.25,,True
1759743238.495,2025-10-06 10:33:58.495,0.6472,0.1685,0.8752,-7.8626,4.8702,-5.0382,45.24,62.0,,True
1759743238.626,2025-10-06 10:33:58.625,0.49,0.082,0.646,-1.374,9.5649,-5.6641,45.52,76.25,,True
1759743238.757,2025-10-06 10:33:58.756,0.5645,0.0,0.7241,4.916,0.0305,-4.687,45.57,78.0,,True
1759743238.888,2025-10-06 10:33:58.888,0.5361,0.0225,0.7139,-4.0458,-2.9771,0.0382,45.71,78.0,,True
1759743239.02,2025-10-06 10:33:59.019,0.542,0.0396,0.7273,-0.3282,-1.1985,-1.6641,45.61,78.0,,True
1759743239.152,2025-10-06 10:33:59.151,0.5354,0.0293,0.7075,3.0382,2.5573,0.5038,45.61,85.25,,True
1759743239.291,2025-10-06 10:33:59.291,0.5417,0.0239,0.7261,4.3206,6.6718,-4.229,45.75,107.0,,True
1759743239.425,2025-10-06 10:33:59.424,0.5337,0.0498,0.719,-1.1985,-3.542,-0.0534,45.61,107.0,,True
1759743239.564,2025-10-06 10:33:59.564,0.533,0.0237,0.7017,2.1908,0.9313,-2.7786,45.61,107.0,,True
1759743239.696,2025-10-06 10:33:59.695,0.5496,0.02,0.7173,0.0076,1.6183,-0.7023,45.38,107.0,,True
1759743239.828,2025-10-06 10:33:59.827,0.5476,0.0183,0.7258,0.5496,-1.8397,-1.2366,45.42,107.0,,True
1759743239.967,2025-10-06 10:33:59.967,0.8994,0.416,0.9656,-5.4962,22.2901,-34.0992,45.61,107.0,,True
1759743240.099,2025-10-06 10:34:00.098,1.1709,0.5125,1.0491,-20.3206,59.6336,31.4809,45.42,107.0,,True
1759743240.231,2025-10-06 10:34:00.230,0.4685,0.0188,0.6877,-2.9924,34.8626,5.3588,45.75,111.5,,True
1759743240.37,2025-10-06 10:34:00.369,-0.229,-1.0315,0.2163,-15.0153,24.1679,18.4122,45.52,125.0,,True
1759743240.501,2025-10-06 10:34:00.501,1.145,-1.2156,1.2078,57.3664,-194.313,-4.6412,45.75,125.0,,True
1759743240.634,2025-10-06 10:34:00.633,1.4736,1.0444,1.1104,85.5573,28.2214,3.9008,45.71,125.0,,True
1759743240.773,2025-10-06 10:34:00.772,-0.6611,0.4004,0.1033,-93.4656,58.6641,-8.4504,45.75,125.0,,True
1759743240.904,2025-10-06 10:34:00.904,0.5596,-0.8081,0.6838,-45.4046,-56.6794,-8.7863,45.71,125.0,,True
1759743241.043,2025-10-06 10:34:01.043,0.5317,0.1128,0.7737,6.9695,14.0305,-2.4809,45.85,212.5,,True
1759743241.175,2025-10-06 10:34:01.174,0.4749,-0.1589,0.7969,20.1527,13.7557,-2.8931,45.61,300.0,,True
1759743241.307,2025-10-06 10:34:01.307,0.4854,-0.0776,0.7209,-3.2595,-6.5038,-6.4733,45.75,300.0,,True
1759743241.447,2025-10-06 10:34:01.446,0.4429,0.2424,0.7305,-13.4427,-2.2214,-3.5954,45.75,167.5,,True
1759743241.578,2025-10-06 10:34:01.577,0.5203,0.1458,0.8186,28.0916,9.374,-0.5649,45.75,116.0,,True
1759743241.71,2025-10-06 10:34:01.709,0.4797,-0.074,0.759,2.1221,-2.6183,-4.1832,45.85,67.25,,True
1759743241.849,2025-10-06 10:34:01.849,0.4634,0.0103,0.7393,8.3664,-2.5191,-9.6718,46.08,89.75,,True
1759743241.981,2025-10-06 10:34:01.981,0.4653,-0.0273,0.7437,5.4809,-0.542,-2.1298,46.08,116.5,,True
1759743242.12,2025-10-06 10:34:02.120,0.5586,0.052,0.7856,1.5802,-7.2366,-0.5802,46.04,166.0,,True
1759743242.252,2025-10-06 10:34:02.251,0.1108,-0.8496,0.4409,-89.5954,148.5496,37.771,45.89,187.0,,True
1759743242.384,2025-10-06 10:34:02.384,0.1599,-0.3945,0.5525,-83.5038,250.1298,18.5191,46.08,171.25,,True
1759743242.524,2025-10-06 10:34:02.524,0.354,0.0134,0.7256,7.9389,17.9924,-0.9695,46.22,171.25,,True
1759743242.656,2025-10-06 10:34:02.655,0.4397,-0.0422,0.7576,-3.313,-0.229,-6.5496,46.04,162.0,,True
1759743242.788,2025-10-06 10:34:02.787,0.4775,-0.054,0.7837,3.6641,-6.313,-6.5878,45.85,154.5,,True
1759743242.928,2025-10-06 10:34:02.927,0.4729,-0.051,0.7761,3.1145,-1.1756,-2.9313,46.27,120.25,,True
1759743243.059,2025-10-06 10:34:03.059,0.4409,-0.0476,0.749,2.9389,5.7481,-6.7328,46.27,170.5,,True
1759743243.192,2025-10-06 10:34:03.191,0.4255,-0.0605,0.7268,2.5344,-1.9771,-1.8168,46.22,193.75,,True
1759743243.331,2025-10-06 10:34:03.330,0.4917,-0.0261,0.7783,4.1985,-2.374,-3.8015,46.22,171.25,,True
1759743243.465,2025-10-06 10:34:03.464,0.4648,-0.0588,0.7551,3.2443,0.7023,-5.6947,46.27,187.0,,True
1759743243.604,2025-10-06 10:34:03.603,0.4858,-0.0305,0.7632,4.8702,-1.2137,-2.6718,46.04,187.0,,True
1759743243.736,2025-10-06 10:34:03.735,0.4646,-0.0066,0.7556,4.0763,0.3282,-3.5802,46.37,214.0,,True
1759743243.868,2025-10-06 10:34:03.868,0.4834,-0.0295,0.7781,1.3664,-1.7328,-3.084,46.41,193.75,,True
1759743244.007,2025-10-06 10:34:04.007,0.4749,-0.0361,0.7485,2.8779,0.2443,-3.5267,46.46,187.0,,True
1759743244.139,2025-10-06 10:34:04.138,0.4744,-0.0178,0.7605,1.2672,1.7939,-2.4427,46.37,193.75,,True
1759743244.271,2025-10-06 10:34:04.271,0.469,-0.0205,0.7554,4.3588,-2.1221,-3.8855,46.27,214.0,,True
1759743244.41,2025-10-06 10:34:04.410,0.5002,-0.0337,0.7869,4.626,-1.6794,-5.4198,46.41,200.5,,True
1759743244.542,2025-10-06 10:34:04.541,0.4646,-0.0276,0.7463,3.916,-1.7634,-4.8473,46.55,207.25,,True
1759743244.673,2025-10-06 10:34:04.672,0.4778,-0.0613,0.7363,-5.3664,-3.8015,1.3359,46.6,202.0,,True
1759743244.804,2025-10-06 10:34:04.803,0.4846,-0.0293,0.7649,8.9466,11.4885,-9.2061,46.37,166.0,,True
1759743244.936,2025-10-06 10:34:04.935,0.48,-0.0186,0.7488,-4.7634,1.2443,1.9771,46.37,187.0,,True
1759743245.068,2025-10-06 10:34:05.068,0.4668,-0.0425,0.7478,0.8321,1.3893,-2.1908,46.22,176.5,,True
1759743245.207,2025-10-06 10:34:05.207,0.4709,-0.0254,0.7449,3.5802,0.1069,-4.4122,46.37,166.0,,True
1759743245.339,2025-10-06 10:34:05.339,0.7009,0.2217,0.929,-25.0153,11.1527,-2.1145,46.22,162.0,,True
1759743245.489,2025-10-06 10:34:05.488,1.6235,0.7363,1.1179,-64.8397,122.5267,0.6718,46.22,154.0,,True
1759743245.621,2025-10-06 10:34:05.621,0.4275,-0.084,0.7666,18.5038,19.7863,1.3893,46.22,176.5,,True
1759743245.76,2025-10-06 10:34:05.760,0.4016,0.0442,0.8125,-12.5802,-8.0,1.2748,46.46,187.0,,True
1759743245.892,2025-10-06 10:34:05.891,0.3618,0.0054,0.7959,-1.0,3.8321,-1.7557,46.41,187.0,,True
1759743246.024,2025-10-06 10:34:06.024,0.3894,-0.0276,0.7883,2.8015,-2.9389,-2.9313,46.27,176.5,,True
1759743246.164,2025-10-06 10:34:06.163,0.3933,-0.0098,0.8037,-2.0076,-1.6794,-1.9466,46.55,166.0,,True
1759743246.295,2025-10-06 10:34:06.295,0.3909,-0.0156,0.8027,2.2137,-0.4427,-4.4962,46.55,158.5,,True
1759743246.427,2025-10-06 10:34:06.426,0.3989,-0.0056,0.7917,-0.7786,-1.4122,-2.0763,46.79,146.5,,True
1759743246.566,2025-10-06 10:34:06.566,0.4014,-0.0278,0.7805,0.7176,2.9237,-2.7252,46.65,132.25,,True
1759743246.698,2025-10-06 10:34:06.697,0.376,-0.0049,0.7729,-2.1221,1.7023,-0.9771,46.65,122.75,,True
1759743246.837,2025-10-06 10:34:06.836,0.3906,-0.0156,0.8101,1.4351,-1.2061,-3.2748,46.65,118.25,,True
1759743246.968,2025-10-06 10:34:06.968,0.4138,-0.0198,0.8381,0.6183,2.1908,-2.084,46.46,103.5,,True
1759743247.101,2025-10-06 10:34:07.100,0.3789,-0.0154,0.7747,2.2519,1.3969,-4.4198,46.55,120.5,,True
1759743247.24,2025-10-06 10:34:07.239,0.3735,-0.0066,0.7527,3.9008,1.6565,-2.3893,46.37,130.5,,True
1759743247.371,2025-10-06 10:34:07.371,0.3035,-0.0435,0.6641,6.4885,-5.3511,-1.8855,46.79,146.5,,True
1759743247.512,2025-10-06 10:34:07.512,0.5449,0.052,0.8806,3.8626,-49.5573,-2.4809,46.6,159.25,,True
1759743247.651,2025-10-06 10:34:07.651,0.6531,-0.052,1.0339,13.6565,-88.6565,-2.6031,46.55,181.75,,True
1759743247.783,2025-10-06 10:34:07.782,0.3318,0.0234,0.656,-9.7557,22.9924,1.1756,46.55,162.0,,True
1759743247.923,2025-10-06 10:34:07.922,0.2461,-0.0674,0.5486,-5.5802,-7.0687,7.0153,46.41,150.0,,True
1759743248.054,2025-10-06 10:34:08.054,0.4309,-0.0332,0.8401,4.9008,-80.0382,-6.3893,46.6,139.5,,True
1759743248.185,2025-10-06 10:34:08.185,0.4329,0.0164,1.1646,23.5496,-165.7557,-8.5802,46.74,154.0,,True
1759743248.317,2025-10-06 10:34:08.316,0.3101,-0.0356,0.689,-3.1603,28.9313,-1.8244,46.46,150.0,,True
1759743248.448,2025-10-06 10:34:08.447,0.3274,-0.0833,0.7461,-3.5496,1.9924,-0.8092,46.65,150.0,,True
1759743248.58,2025-10-06 10:34:08.579,0.2766,-0.0435,0.7915,3.4733,-3.0305,-2.2366,46.79,150.0,,True
1759743248.719,2025-10-06 10:34:08.718,0.3118,-0.0659,0.822,3.9618,-1.626,-5.2672,46.55,150.0,,True
1759743248.85,2025-10-06 10:34:08.850,0.342,-0.0696,0.8425,4.4275,-4.6107,-4.4198,46.65,150.0,,True
1759743248.983,2025-10-06 10:34:08.982,0.3413,-0.083,0.8408,1.5802,-0.626,-2.3664,46.79,150.0,,True
1759743249.122,2025-10-06 10:34:09.122,0.3252,-0.0725,0.8057,1.2595,0.7634,-2.3664,46.6,150.0,,True
1759743249.254,2025-10-06 10:34:09.253,0.3193,-0.0645,0.8247,3.6489,-0.3817,-3.8779,46.79,150.0,,True
1759743249.386,2025-10-06 10:34:09.385,0.3313,-0.0828,0.8379,3.3435,-0.6031,-3.8015,46.65,150.0,,True
1759743249.533,2025-10-06 10:34:09.532,0.3225,-0.0713,0.825,2.8244,-0.0229,-2.7863,46.79,150.0,,True
1759743249.668,2025-10-06 10:34:09.668,0.3269,-0.0569,0.8228,0.6794,-0.4427,-3.8779,46.6,150.0,,True
1759743249.806,2025-10-06 10:34:09.806,0.3252,-0.0701,0.8201,2.8473,-1.313,-2.542,46.93,150.0,,True
1759743249.936,2025-10-06 10:34:09.936,0.3225,-0.0742,0.8201,2.6794,1.8473,-3.3588,46.6,150.0,,True
1759743250.074,2025-10-06 10:34:10.074,0.3269,-0.0601,0.8232,2.1679,-0.8702,-3.3053,46.6,110.5,,True
1759743250.205,2025-10-06 10:34:10.204,0.3274,-0.0588,0.8271,3.3969,1.4427,-3.3817,46.88,68.75,,True
1759743250.337,2025-10-06 10:34:10.336,0.3157,-0.0662,0.8196,0.6565,3.0382,-2.7405,46.79,68.25,,True
1759743250.475,2025-10-06 10:34:10.474,0.3254,-0.0786,0.8293,3.687,0.2748,-4.5573,46.98,60.0,,True
1759743250.605,2025-10-06 10:34:10.605,0.3271,-0.0676,0.8381,1.4427,-1.9542,-2.7099,46.41,60.0,,True
1759743250.737,2025-10-06 10:34:10.737,0.3213,-0.0508,0.823,2.1145,0.1985,-2.3664,46.46,61.25,,True
1759743250.875,2025-10-06 10:34:10.875,0.3193,-0.0757,0.8167,2.8244,-0.6336,-1.7786,46.88,56.25,,True
1759743251.006,2025-10-06 10:34:11.005,0.3276,-0.0593,0.8384,2.6107,-1.771,-3.1679,46.79,44.0,,True
1759743251.138,2025-10-06 10:34:11.137,0.3232,-0.0627,0.8186,1.7634,0.0458,-1.9542,46.79,38.25,,True
1759743251.275,2025-10-06 10:34:11.275,0.3196,-0.0779,0.8179,2.542,0.9695,-3.0076,46.79,41.0,,True
1759743251.406,2025-10-06 10:34:11.405,0.3196,-0.0544,0.8152,4.5573,-2.0763,-3.7252,46.93,46.25,,True
1759743251.546,2025-10-06 10:34:11.546,0.3242,-0.071,0.8181,3.0305,3.5954,-3.9313,46.6,59.0,,True
1759743251.684,2025-10-06 10:34:11.684,0.3347,-0.0508,0.8303,2.5878,1.8626,-2.771,46.79,84.75,,True
1759743251.815,2025-10-06 10:34:11.814,0.3337,-0.0637,0.8386,2.1679,-1.3588,-2.1374,46.6,111.0,,True
1759743251.953,2025-10-06 10:34:11.952,0.3284,-0.063,0.8337,4.7176,-0.7328,-4.2824,46.65,143.75,,True
1759743252.083,2025-10-06 10:34:12.083,0.2913,-0.0596,0.801,4.1832,7.3893,-2.1985,46.6,166.0,,True
1759743252.215,2025-10-06 10:34:12.215,0.3005,-0.0491,0.8245,4.5954,3.8931,-1.458,46.6,172.5,,True
1759743252.354,2025-10-06 10:34:12.353,0.2644,-0.0154,0.8442,11.8473,-0.8168,5.8244,46.79,154.0,,True
1759743252.484,2025-10-06 10:34:12.483,0.0078,-0.0432,-0.0605,-30.3359,9.4198,-90.7099,46.55,151.25,,True
1759743252.616,2025-10-06 10:34:12.616,0.085,-0.05,0.7542,-0.9008,0.5038,0.7863,46.79,151.25,,True
1759743252.754,2025-10-06 10:34:12.753,0.0608,-0.0537,0.876,3.2595,-2.771,-3.4122,46.55,151.25,,True
1759743252.885,2025-10-06 10:34:12.885,0.0586,-0.0437,0.8882,2.4275,1.3893,-2.7863,46.27,257.0,,True
1759743253.015,2025-10-06 10:34:13.014,0.0552,-0.0503,0.8816,2.4198,0.0611,-2.7252,46.46,207.25,,True
1759743253.145,2025-10-06 10:34:13.144,0.0579,-0.0522,0.8711,2.6183,-0.0153,-2.687,46.37,168.5,,True
1759743253.275,2025-10-06 10:34:13.275,0.0527,-0.0576,0.8772,2.5573,0.0076,-2.9466,46.55,102.25,,True
1759743253.406,2025-10-06 10:34:13.405,0.0515,-0.0496,0.8909,2.1221,-1.2443,-2.9008,46.55,88.0,,True
1759743253.535,2025-10-06 10:34:13.535,0.0718,-0.0471,0.835,6.771,1.0,-3.6641,46.79,112.0,,True
1759743253.659,2025-10-06 10:34:13.659,-0.1968,-0.1824,1.6802,27.9008,2.0382,-16.2137,46.55,124.0,,True
1759743253.776,2025-10-06 10:34:13.775,0.1616,0.1685,0.8955,1.9237,-4.1832,6.4962,46.55,124.0,,True
1759743253.892,2025-10-06 10:34:13.891,0.2708,0.0898,0.9109,-5.1298,-102.6794,17.2137,46.37,124.0,,True
1759743254.008,2025-10-06 10:34:14.007,0.1367,-0.0168,0.947,-5.9618,30.2824,7.8015,46.55,124.0,,True
1759743254.124,2025-10-06 10:34:14.123,0.0081,-0.0693,0.8108,-8.5191,11.1908,10.4809,46.46,124.0,,True
1759743254.24,2025-10-06 10:34:14.239,0.0371,-0.0659,0.8521,-0.2214,-10.4046,-0.7939,46.46,124.0,,True
1759743254.355,2025-10-06 10:34:14.355,0.0898,-0.054,0.8313,4.5649,0.7252,2.1298,46.22,124.0,,True
1759743254.471,2025-10-06 10:34:14.471,0.064,-0.0752,0.8384,2.3053,2.9313,0.4504,46.46,124.0,,True
1759743254.587,2025-10-06 10:34:14.587,0.0725,-0.0647,0.8621,5.0458,-1.8702,-2.5649,46.46,124.0,,True
1759743254.703,2025-10-06 10:34:14.703,0.0591,-0.0613,0.8408,6.8321,2.4504,-2.4504,46.41,124.0,,True
1759743254.82,2025-10-06 10:34:14.819,0.0725,-0.0186,0.8596,3.3282,0.4046,-2.6565,46.22,124.0,,True
1759743254.936,2025-10-06 10:34:14.935,0.0774,-0.0559,0.9016,3.5802,2.9313,-6.7634,46.37,124.0,,True
1759743255.052,2025-10-06 10:34:15.051,0.051,-0.0281,0.928,4.6031,6.1298,-8.0,46.13,124.0,,True
1759743255.168,2025-10-06 10:34:15.167,0.0398,-0.0369,0.8721,-1.4504,6.4198,-1.1756,46.46,124.0,,True
1759743255.284,2025-10-06 10:34:15.283,0.0234,-0.0413,0.8247,0.1908,-0.0153,-2.1069,46.27,124.0,,True
1759743255.4,2025-10-06 10:34:15.399,0.0842,-0.1172,0.8843,-7.6107,-10.7328,19.2824,46.27,124.0,,True
1759743255.516,2025-10-06 10:34:15.515,0.0708,-0.0574,0.9299,-5.7023,-10.7405,-4.4122,46.55,124.0,,True
1759743255.632,2025-10-06 10:34:15.631,0.0823,-0.075,0.8455,-4.6336,5.0992,-12.6107,46.41,124.0,,True
1759743255.748,2025-10-06 10:34:15.747,0.0129,-0.0803,0.8296,-0.374,8.2595,-24.3206,46.37,124.0,,True
1759743255.864,2025-10-06 10:34:15.863,0.0913,-0.061,0.9126,-14.0687,-6.3053,-31.1069,46.08,124.0,,True
1759743255.98,2025-10-06 10:34:15.980,0.0488,-0.0947,0.8425,0.6718,12.0458,-13.1145,46.27,124.0,,True
1759743256.096,2025-10-06 10:34:16.096,0.074,-0.1121,0.8481,-1.1298,4.916,-4.3359,46.22,124.0,,True
1759743256.212,2025-10-06 10:34:16.212,0.0068,-0.0261,0.8779,11.458,8.7481,3.0992,46.37,124.0,,True
1759743256.328,2025-10-06 10:34:16.328,0.0569,-0.0767,0.9089,0.3664,-4.0916,7.2977,46.55,124.0,,True
1759743256.444,2025-10-06 10:34:16.444,0.0076,-0.0381,0.8447,0.0458,0.5038,3.0305,46.46,124.0,,True
1759743256.56,2025-10-06 10:34:16.560,0.0562,-0.0874,0.9004,10.458,4.8473,-1.2748,46.04,124.0,,True
1759743256.676,2025-10-06 10:34:16.676,0.0281,-0.0679,0.8647,1.8092,1.229,-1.2366,46.37,124.0,,True
1759743256.792,2025-10-06 10:34:16.792,0.0063,-0.0481,0.8765,-0.7023,-6.8473,-2.3588,46.22,124.0,,True
1759743256.908,2025-10-06 10:34:16.908,0.0422,-0.0559,0.8933,9.2672,4.7481,-11.6718,46.27,124.0,,True
1759743257.024,2025-10-06 10:34:17.024,0.0303,-0.0273,0.9167,1.0992,-4.7099,-12.8626,46.37,124.0,,True
1759743257.14,2025-10-06 10:34:17.140,0.0344,-0.0566,0.9019,1.9389,1.8244,-9.3435,46.22,124.0,,True
1759743257.256,2025-10-06 10:34:17.256,0.0024,-0.0747,0.8584,3.6031,5.8244,-5.4733,46.27,124.0,,True
1759743257.372,2025-10-06 10:34:17.372,0.0549,-0.0522,0.9404,-1.8473,-16.542,7.6718,46.08,124.0,,True
1759743257.488,2025-10-06 10:34:17.488,-0.0078,0.1873,0.8521,-9.2901,-6.7557,-11.8702,46.27,124.0,,True
1759743257.604,2025-10-06 10:34:17.604,0.0291,-0.0945,0.7756,11.5878,-12.687,-2.2748,46.27,124.0,,True
1759743257.72,2025-10-06 10:34:17.720,0.0237,-0.1311,0.9089,-7.4962,-29.916,-4.8626,46.46,124.0,,True
1759743257.837,2025-10-06 10:34:17.836,0.0276,-0.0779,0.8689,8.4504,1.6794,-5.0687,46.41,124.0,,True
1759743257.953,2025-10-06 10:34:17.952,0.0647,-0.1157,0.8689,-5.2824,-18.0076,-3.3435,46.22,124.0,,True
1759743258.069,2025-10-06 10:34:18.068,0.2002,-0.1543,0.8855,2.3053,-24.0,-6.0687,46.27,124.0,,True
1759743258.185,2025-10-06 10:34:18.185,0.1643,-0.0967,0.7573,10.9771,57.5649,-16.2672,46.27,124.0,,True
1759743258.301,2025-10-06 10:34:18.301,0.1152,-0.1958,0.8279,6.8779,-0.1756,-0.2672,46.27,124.0,,True
1759743258.417,2025-10-06 10:34:18.417,0.0801,-0.0698,0.9216,-0.7481,14.3588,9.2672,46.37,124.0,,True
1759743258.533,2025-10-06 10:34:18.533,0.178,-0.0754,0.842,-4.7176,-33.2595,1.5115,46.22,124.0,,True
1759743258.649,2025-10-06 10:34:18.649,0.1987,-0.0671,0.8772,12.6107,0.2137,-5.145,46.37,124.0,,True
1759743258.765,2025-10-06 10:34:18.765,0.0742,-0.1306,0.8342,13.1756,12.6947,-6.1221,46.22,124.0,,True
1759743258.881,2025-10-06 10:34:18.881,0.1804,-0.1733,0.8635,11.9008,-8.3053,-5.2977,46.08,124.0,,True
1759743258.997,2025-10-06 10:34:18.997,0.1912,-0.1248,0.8354,-2.0076,-8.1679,-1.5649,46.08,124.0,,True
1759743259.113,2025-10-06 10:34:19.113,0.1118,-0.0811,0.8655,-1.8321,5.0763,-4.4504,45.94,124.0,,True
1759743259.229,2025-10-06 10:34:19.229,0.1707,-0.1326,0.874,3.7481,-1.5573,-7.3817,46.27,124.0,,True
1759743259.346,2025-10-06 10:34:19.345,0.1694,-0.1226,0.8796,-6.4046,-5.7786,-1.3969,46.22,124.0,,True
1759743259.462,2025-10-06 10:34:19.461,0.1687,-0.106,0.8293,0.5878,-1.2672,5.9466,46.08,124.0,,True
1759743259.578,2025-10-06 10:34:19.577,0.1594,-0.1387,0.8455,1.0916,-0.6641,6.4198,46.22,124.0,,True
1759743259.694,2025-10-06 10:34:19.693,0.2034,-0.146,0.8208,-0.2214,-8.2824,5.5802,45.94,124.0,,True
1759743259.81,2025-10-06 10:34:19.809,0.2393,-0.1831,0.8367,3.8779,-0.3817,8.4351,46.22,124.0,,True
1759743259.926,2025-10-06 10:34:19.925,0.2271,-0.1377,0.9067,4.1069,3.6794,-2.7023,46.13,124.0,,True
1759743260.042,2025-10-06 10:34:20.041,0.1919,-0.1555,0.8459,-8.6641,12.7405,1.5802,46.22,124.0,,True
1759743260.158,2025-10-06 10:34:20.157,0.1941,-0.1484,0.8652,0.0916,0.3359,0.4275,46.27,124.0,,True
1759743260.274,2025-10-06 10:34:20.273,0.1665,-0.1858,0.8484,2.8626,-6.0534,1.5496,46.04,124.0,,True
1759743260.39,2025-10-06 10:34:20.389,0.1736,-0.1301,0.8799,1.9542,2.6794,-2.9618,46.27,124.0,,True
1759743260.506,2025-10-06 10:34:20.506,0.1729,-0.1584,0.8738,6.9389,0.7328,-2.4046,46.22,124.0,,True
1759743260.622,2025-10-06 10:34:20.622,0.1665,-0.1165,0.9155,10.1603,-2.3969,-4.2595,46.13,124.0,,True
1759743260.738,2025-10-06 10:34:20.738,0.2163,-0.1177,0.9248,15.7481,3.2061,-2.4504,46.13,124.0,,True
1759743260.854,2025-10-06 10:34:20.854,0.1389,-0.073,0.8872,31.9084,33.7939,-16.1374,46.13,124.0,,True
1759743260.97,2025-10-06 10:34:20.970,0.0693,-0.0056,0.8699,40.771,36.0687,-13.4198,46.27,124.0,,True
1759743261.086,2025-10-06 10:34:21.086,0.0078,0.1423,0.8486,8.9237,23.6718,-10.1527,46.08,124.0,,True
1759743261.202,2025-10-06 10:34:21.202,-0.0508,0.0212,0.8389,3.4656,4.2824,-4.7099,46.37,124.0,,True
1759743261.318,2025-10-06 10:34:21.318,-0.0239,0.0854,0.8716,3.6947,8.0763,-17.3588,46.27,124.0,,True
1759743261.434,2025-10-06 10:34:21.434,-0.0696,0.054,0.9111,-18.9618,-87.3053,-26.5878,46.41,124.0,,True
1759743261.55,2025-10-06 10:34:21.550,-0.0398,0.0327,0.8726,15.1756,-0.5191,-40.4351,46.27,124.0,,True
1759743261.666,2025-10-06 10:34:21.666,0.1328,0.2004,0.9299,23.3817,-31.8244,-5.0916,46.27,124.0,,True
1759743261.782,2025-10-06 10:34:21.782,0.1143,0.0996,0.9009,-61.313,-24.6031,-17.0534,45.94,124.0,,True
1759743261.898,2025-10-06 10:34:21.898,0.198,0.032,0.8931,10.9008,-22.4809,11.7099,46.04,124.0,,True
1759743262.015,2025-10-06 10:34:22.014,0.2744,0.0508,0.7803,-10.7252,-14.8473,6.4504,46.37,124.0,,True
1759743262.131,2025-10-06 10:34:22.130,0.2427,0.0149,0.8528,-8.3435,-11.8092,1.0458,46.41,124.0,,True
1759743262.247,2025-10-06 10:34:22.246,0.2214,-0.0161,0.7551,14.6565,0.9389,3.7634,46.37,124.0,,True
1759743262.363,2025-10-06 10:34:22.362,0.262,0.0312,0.7722,5.1756,4.1145,-3.8931,46.08,124.0,,True
1759743262.479,2025-10-06 10:34:22.478,0.2241,0.0278,0.9031,-6.9924,11.6565,6.313,46.08,124.0,,True
1759743262.595,2025-10-06 10:34:22.594,0.251,0.0356,0.9463,4.3969,3.0153,-2.0534,46.04,124.0,,True
1759743262.711,2025-10-06 10:34:22.710,0.4221,-0.1624,0.4067,5.6489,-19.6412,-14.6565,46.27,124.0,,True
1759743262.827,2025-10-06 10:34:22.826,0.1189,0.6318,1.3357,-250.1374,250.1298,150.7863,45.94,124.0,,True
1759743262.943,2025-10-06 10:34:22.942,-0.1213,-0.376,0.939,-103.3664,-8.7328,26.9924,46.13,124.0,,True
1759743263.059,2025-10-06 10:34:23.058,0.1763,-0.0105,0.9692,20.3359,-15.1832,-7.4046,46.22,124.0,,True
1759743263.175,2025-10-06 10:34:23.174,0.1646,-0.0508,0.8452,16.3359,-16.1908,2.3588,46.27,124.0,,True
1759743263.291,2025-10-06 10:34:23.290,0.189,0.0203,0.9045,7.6489,-28.3435,9.2672,46.08,124.0,,True
1759743263.407,2025-10-06 10:34:23.406,0.3276,-0.0781,0.7664,11.3817,-31.6489,10.1603,46.27,124.0,,True
1759743263.523,2025-10-06 10:34:23.522,0.3677,-0.0503,0.696,37.4275,-14.9771,-0.2137,45.94,124.0,,True
1759743263.639,2025-10-06 10:34:23.638,0.3289,-0.0627,0.7808,-5.7634,-6.4351,2.229,46.22,124.0,,True
1759743263.755,2025-10-06 10:34:23.754,0.3079,-0.085,0.8606,-0.4656,11.7863,14.6183,46.08,124.0,,True
1759743263.871,2025-10-06 10:34:23.870,0.2905,-0.1357,0.8647,16.8626,4.4809,32.5191,45.94,124.0,,True
1759743263.987,2025-10-06 10:34:23.987,0.249,-0.0747,0.8362,29.542,-16.0763,-5.4504,46.04,124.0,,True
1759743264.103,2025-10-06 10:34:24.103,0.2864,-0.0703,0.8093,-10.6718,4.8015,-3.5954,46.08,124.0,,True
1759743264.22,2025-10-06 10:34:24.219,0.2783,-0.0547,0.8279,-1.7023,5.3435,-1.7939,46.37,124.0,,True
1759743264.335,2025-10-06 10:34:24.335,0.2673,-0.0618,0.8372,5.5725,8.9466,-1.9084,46.04,124.0,,True
1759743264.451,2025-10-06 10:34:24.451,0.2454,-0.0605,0.8569,3.2443,7.2977,-2.4733,46.04,124.0,,True
1759743264.567,2025-10-06 10:34:24.567,0.2471,-0.043,0.8584,3.8397,-1.0229,-2.458,46.04,124.0,,True
1759743264.683,2025-10-06 10:34:24.683,0.2366,-0.0525,0.8337,3.5038,3.6183,-2.2748,46.04,124.0,,True
1759743264.799,2025-10-06 10:34:24.799,0.2161,-0.0457,0.8745,8.1221,-3.3359,-2.4122,46.04,124.0,,True
1759743264.915,2025-10-06 10:34:24.915,-0.0054,0.0723,-0.0166,104.5649,-41.1145,-27.8015,45.89,124.0,,True
1759743265.031,2025-10-06 10:34:25.031,0.0779,0.3848,0.6904,-6.8855,-2.6412,-10.855,46.08,124.0,,True
1759743265.147,2025-10-06 10:34:25.147,0.0667,0.0388,0.9238,-0.1603,-6.5344,-0.0916,45.85,124.0,,True
1759743265.263,2025-10-06 10:34:25.263,0.1218,0.0381,0.9038,5.1527,-3.4427,-0.5725,45.89,124.0,,True
1759743265.379,2025-10-06 10:34:25.379,0.1057,0.0237,0.885,2.2137,-1.542,-1.687,46.22,124.0,,True
1759743265.495,2025-10-06 10:34:25.495,0.1086,-0.0061,0.8835,1.2672,-3.4885,-1.1145,46.08,124.0,,True
1759743265.611,2025-10-06 10:34:25.611,0.1094,0.0244,0.8657,2.8168,1.8168,-3.1069,46.04,124.0,,True
1759743265.727,2025-10-06 10:34:25.727,0.1135,0.0247,0.8699,3.855,0.0992,-2.9542,46.37,124.0,,True
1759743265.843,2025-10-06 10:34:25.843,0.1162,0.0186,0.877,3.6718,-0.0382,-2.3511,45.75,124.0,,True
1759743265.959,2025-10-06 10:34:25.959,0.1133,0.0383,0.8706,5.0611,1.7786,-3.0458,46.04,124.0,,True
1759743266.075,2025-10-06 10:34:26.075,0.0945,0.0215,0.877,3.1298,1.4809,-4.0687,45.89,124.0,,True
1759743266.192,2025-10-06 10:34:26.191,0.116,-0.0339,0.8757,-10.6718,-1.4733,-0.6565,46.13,124.0,,True
1759743266.308,2025-10-06 10:34:26.307,0.105,-0.0283,0.8833,-3.313,5.5496,-5.8779,46.04,124.0,,True
1759743266.424,2025-10-06 10:34:26.423,0.1123,-0.0596,0.8696,11.4198,6.8626,-4.5725,46.08,124.0,,True
1759743266.54,2025-10-06 10:34:26.539,0.0769,0.0542,0.9021,52.1756,0.6107,5.6718,46.04,124.0,,True
1759743266.656,2025-10-06 10:34:26.655,0.094,0.0701,0.864,-14.2519,-2.0534,-3.0992,46.27,124.0,,True
1759743266.772,2025-10-06 10:34:26.771,0.1206,0.0491,0.8816,-9.6412,-9.9237,-7.2901,45.94,124.0,,True
1759743266.888,2025-10-06 10:34:26.887,0.1116,0.0413,0.8896,4.7634,0.2366,-8.3435,46.08,124.0,,True
1759743267.004,2025-10-06 10:34:27.003,0.1306,0.0212,0.8557,-1.5115,1.6489,-2.8855,46.22,124.0,,True
1759743267.12,2025-10-06 10:34:27.119,0.1189,0.0161,0.853,0.6794,0.4275,-2.0076,45.89,124.0,,True
1759743267.236,2025-10-06 10:34:27.235,0.1235,0.0149,0.8857,2.6031,-1.1298,-2.8779,46.22,124.0,,True
1759743267.352,2025-10-06 10:34:27.351,0.1301,0.0085,0.8591,0.0763,-5.5344,-3.9008,46.08,124.0,,True
1759743267.468,2025-10-06 10:34:27.467,0.1206,0.0076,0.8506,-0.7176,-1.4504,-4.9237,46.08,124.0,,True
1759743267.584,2025-10-06 10:34:27.583,0.1409,0.0024,0.8684,-1.9771,-3.2672,-7.1756,46.27,124.0,,True
1759743267.7,2025-10-06 10:34:27.699,0.1465,-0.0015,0.8633,2.4504,-0.3053,-4.5344,46.08,124.0,,True
1759743267.816,2025-10-06 10:34:27.815,0.1538,0.012,0.8745,4.8397,0.7405,-2.8244,46.13,124.0,,True
1759743267.932,2025-10-06 10:34:27.931,0.1377,-0.0059,0.8499,3.2214,0.229,-4.1527,46.08,124.0,,True
1759743268.048,2025-10-06 10:34:28.047,0.1416,0.0017,0.8594,0.8168,0.1221,-1.6183,46.04,124.0,,True
1759743268.164,2025-10-06 10:34:28.163,0.145,0.0061,0.8713,4.8473,-1.3206,-1.4351,45.94,124.0,,True
1759743268.28,2025-10-06 10:34:28.279,0.1057,-0.0015,0.8291,4.1603,-5.8931,-1.771,46.04,124.0,,True
1759743268.396,2025-10-06 10:34:28.396,0.0132,0.0154,-0.1555,97.5725,-83.5649,-52.8244,45.89,124.0,,True
1759743268.512,2025-10-06 10:34:28.512,-0.0112,0.219,0.8611,-13.2519,38.9084,-31.6336,45.94,124.0,,True
1759743268.628,2025-10-06 10:34:28.628,0.0774,0.0288,0.8855,-10.1985,-6.5267,0.5115,45.94,124.0,,True
1759743268.744,2025-10-06 10:34:28.744,0.1013,0.0315,0.8921,-4.0458,-3.2519,-1.4656,46.08,124.0,,True
1759743268.86,2025-10-06 10:34:28.860,0.0945,0.0303,0.8899,3.5115,1.3588,-2.2366,46.22,124.0,,True
1759743268.976,2025-10-06 10:34:28.976,0.0859,0.0132,0.8733,4.6794,1.0076,-1.771,46.04,124.0,,True
1759743269.092,2025-10-06 10:34:29.092,0.1064,0.0332,0.886,3.7405,3.1985,-3.5725,45.85,124.0,,True
1759743269.208,2025-10-06 10:34:29.208,0.144,0.0491,0.8772,14.2061,19.6565,-23.4198,45.94,124.0,,True
1759743269.324,2025-10-06 10:34:29.324,0.1406,0.0615,0.917,2.9466,-13.5115,14.1985,45.94,124.0,,True
1759743269.44,2025-10-06 10:34:29.440,0.0759,0.0281,0.8135,4.3511,5.1679,-0.0916,46.04,124.0,,True
1759743269.556,2025-10-06 10:34:29.556,0.0918,0.0957,0.8943,25.0,0.9924,-11.2061,45.94,124.0,,True
1759743269.672,2025-10-06 10:34:29.672,0.1226,0.0017,0.8328,0.6031,1.4198,-3.9771,46.04,124.0,,True
1759743269.789,2025-10-06 10:34:29.788,0.1094,0.0063,0.8745,8.0534,5.229,4.0687,46.04,124.0,,True
1759743269.905,2025-10-06 10:34:29.904,0.0745,0.0542,0.8611,26.3893,5.1985,13.9695,45.85,124.0,,True
1759743270.021,2025-10-06 10:34:30.020,0.0762,0.1006,0.8906,-9.5573,-7.9618,-9.5496,46.08,124.0,,True
1759743270.137,2025-10-06 10:34:30.136,0.0808,0.0574,0.8801,-4.7099,-7.7557,-8.1985,45.94,124.0,,True
1759743270.253,2025-10-06 10:34:30.252,0.0823,0.0603,0.9189,-3.374,-4.145,-7.4962,46.37,124.0,,True
1759743270.369,2025-10-06 10:34:30.369,0.0884,0.0332,0.8303,-3.3282,-6.145,-5.5573,45.94,124.0,,True
1759743270.485,2025-10-06 10:34:30.485,0.0859,0.0349,0.8755,2.9389,-4.0534,-4.4198,46.08,124.0,,True
1759743270.601,2025-10-06 10:34:30.601,0.095,0.0344,0.8608,2.7252,-4.458,-3.5802,46.08,124.0,,True
1759743270.717,2025-10-06 10:34:30.717,0.0896,0.0427,0.8994,2.9008,-5.458,-2.7786,45.94,124.0,,True
1759743270.833,2025-10-06 10:34:30.833,0.1135,0.0488,0.8743,4.3664,-1.7557,-3.8931,45.94,124.0,,True
1759743270.949,2025-10-06 10:34:30.949,0.1008,0.0522,0.8855,1.8321,-0.7328,-3.9084,45.85,124.0,,True
1759743271.065,2025-10-06 10:34:31.065,0.1135,0.0378,0.8604,-0.2214,-1.3893,-2.9313,46.08,124.0,,True
1759743271.181,2025-10-06 10:34:31.181,0.1262,0.0408,0.8445,3.2824,-1.0305,-2.7176,45.89,124.0,,True
1759743271.297,2025-10-06 10:34:31.297,0.1111,0.0461,0.8965,2.687,-4.1527,-1.687,46.08,124.0,,True
1759743271.413,2025-10-06 10:34:31.413,0.1301,0.0439,0.875,0.9771,-3.9466,-2.6794,45.75,124.0,,True
1759743271.529,2025-10-06 10:34:31.529,0.1287,-0.0586,0.686,-18.9237,-9.4885,1.8015,46.08,124.0,,True
1759743271.645,2025-10-06 10:34:31.645,0.1375,0.0144,-0.2661,207.5496,29.2824,-19.4275,46.04,124.0,,True
1759743271.761,2025-10-06 10:34:31.761,-0.0857,-0.1089,-0.0007,-223.6031,-134.8626,250.1298,46.22,124.0,,True
1759743271.877,2025-10-06 10:34:31.877,-0.4946,-1.4653,0.6299,-0.0076,-0.0076,-0.0076,46.08,124.0,,True
1759743271.993,2025-10-06 10:34:31.993,-0.1343,-0.4507,0.6963,-9.7023,-8.0763,-21.6718,45.71,124.0,,True
1759743272.109,2025-10-06 10:34:32.109,-0.1191,-0.4478,0.7898,11.4122,-0.6641,-2.1221,45.75,124.0,,True
1759743272.225,2025-10-06 10:34:32.225,-0.1541,-0.4653,0.7634,-4.7863,1.2595,-7.1908,45.94,124.0,,True
1759743272.341,2025-10-06 10:34:32.341,-0.1045,-0.4744,0.7324,-21.3206,33.4656,-3.6794,45.75,124.0,,True
1759743272.458,2025-10-06 10:34:32.457,-0.2109,-0.5164,0.7415,17.916,-20.2366,-5.9237,45.85,124.0,,True
1759743272.574,2025-10-06 10:34:32.573,-0.085,-0.4648,0.718,31.2824,-29.8931,-6.542,45.75,124.0,,True
1759743272.69,2025-10-06 10:34:32.689,-0.1199,-0.4526,0.7583,8.8931,-7.1069,-6.2672,45.61,124.0,,True
1759743272.806,2025-10-06 10:34:32.805,-0.0952,-0.4578,0.7563,3.7786,-1.5802,-2.4351,45.94,124.0,,True
1759743272.922,2025-10-06 10:34:32.921,-0.1125,-0.4558,0.7705,-1.7176,-1.7634,-5.084,45.85,124.0,,True
1759743273.038,2025-10-06 10:34:33.037,-0.094,-0.458,0.7524,0.6794,0.5344,-2.4198,45.89,124.0,,True
1759743273.154,2025-10-06 10:34:33.153,-0.1045,-0.4463,0.7603,-0.5267,-0.4656,-3.7863,45.89,124.0,,True
1759743273.27,2025-10-06 10:34:33.269,-0.1069,-0.4731,0.7896,-12.3206,4.5725,9.0153,45.94,124.0,,True
1759743273.386,2025-10-06 10:34:33.385,-0.1243,-0.4807,0.7424,3.5954,-3.7634,-5.458,46.04,124.0,,True
1759743273.502,2025-10-06 10:34:33.501,-0.0947,-0.4841,0.7363,4.1298,-0.7099,-2.1908,46.04,124.0,,True
1759743273.618,2025-10-06 10:34:33.617,-0.1155,-0.4927,0.7925,-7.2443,5.5573,5.0916,45.75,124.0,,True
1759743273.734,2025-10-06 10:34:33.734,-0.0916,-0.4956,0.7493,6.3511,-9.2366,-6.1985,45.89,124.0,,True
1759743273.85,2025-10-06 10:34:33.850,-0.0774,-0.4565,0.7686,39.8855,-23.5878,-37.9542,45.89,124.0,,True
1759743273.966,2025-10-06 10:34:33.966,0.0039,-0.4548,0.8115,68.6183,-21.6412,-41.3893,45.89,124.0,,True
1759743274.082,2025-10-06 10:34:34.082,0.0142,-0.1904,0.9126,135.6947,-23.4122,-37.2901,45.75,124.0,,True
1759743274.198,2025-10-06 10:34:34.198,-0.0193,-0.0244,0.8198,29.6183,-23.2137,-23.9237,45.94,124.0,,True
1759743274.314,2025-10-06 10:34:34.314,0.0818,0.0642,0.9182,33.9771,-10.855,-3.7863,45.94,124.0,,True
1759743274.431,2025-10-06 10:34:34.430,0.1038,0.1138,0.9058,1.8168,-24.916,-26.4885,45.57,124.0,,True
1759743274.547,2025-10-06 10:34:34.546,0.1797,0.0916,0.8635,-22.0611,-11.8092,-14.8626,45.61,124.0,,True
1759743274.663,2025-10-06 10:34:34.662,0.2183,0.0237,0.8376,-26.4275,-27.0076,-16.4351,45.85,124.0,,True
1759743274.779,2025-10-06 10:34:34.778,0.2441,0.0024,0.7983,-9.5573,-9.2137,-12.2595,45.89,124.0,,True
1759743274.895,2025-10-06 10:34:34.895,0.2769,0.0042,0.8423,-1.771,-2.9313,-10.0992,45.85,124.0,,True
1759743275.011,2025-10-06 10:34:35.011,0.2351,0.0042,0.7949,1.0763,0.4275,-8.5802,45.75,124.0,,True
1759743275.127,2025-10-06 10:34:35.127,0.2598,-0.0056,0.8335,-3.0153,1.458,-8.145,45.85,124.0,,True
1759743275.243,2025-10-06 10:34:35.243,0.259,-0.0242,0.8071,-0.1832,-2.8931,-4.8244,45.85,124.0,,True
1759743275.359,2025-10-06 10:34:35.359,0.2688,-0.0103,0.8342,-1.0611,-1.9924,-6.7481,45.85,124.0,,True
1759743275.475,2025-10-06 10:34:35.475,0.2932,-0.0134,0.8215,2.1985,-4.2595,-3.4885,45.75,124.0,,True
1759743275.592,2025-10-06 10:34:35.591,0.2837,-0.0151,0.8135,3.0,-2.0916,-4.6336,45.94,124.0,,True
1759743275.708,2025-10-06 10:34:35.707,0.2939,-0.0144,0.8162,4.0611,-0.542,-3.9695,45.75,124.0,,True
1759743275.824,2025-10-06 10:34:35.823,0.2932,-0.0115,0.8154,2.4809,-0.5496,-2.5573,45.75,124.0,,True
1759743275.94,2025-10-06 10:34:35.939,0.2759,-0.0049,0.824,5.4351,0.1985,-3.7176,45.71,124.0,,True
1759743276.056,2025-10-06 10:34:36.055,0.3118,-0.0049,0.832,2.7939,0.7557,-2.771,45.89,124.0,,True
1759743276.172,2025-10-06 10:34:36.172,0.2854,-0.0066,0.8145,4.2061,-3.8779,1.1298,45.89,124.0,,True
1759743276.288,2025-10-06 10:34:36.288,0.3792,-0.1309,0.584,-24.7252,-23.229,23.6718,45.71,124.0,,True
1759743276.404,2025-10-06 10:34:36.404,-0.0332,0.0137,-0.1252,89.5267,137.4885,-76.5191,45.89,124.0,,True
1759743276.52,2025-10-06 10:34:36.520,0.0239,-0.031,1.2666,131.0611,-120.8626,18.5267,45.85,124.0,,True
1759743276.636,2025-10-06 10:34:36.636,0.1326,0.0955,0.887,-101.374,61.2366,8.7328,46.04,124.0,,True
1759743276.753,2025-10-06 10:34:36.752,0.0488,0.0442,0.8896,46.6947,-37.8321,-3.5344,45.75,124.0,,True
1759743276.869,2025-10-06 10:34:36.868,0.0833,0.0444,0.8667,-22.8626,16.7634,-1.2977,45.75,124.0,,True
1759743276.985,2025-10-06 10:34:36.984,0.0984,0.0488,0.8684,9.5954,-12.8015,-1.2595,45.75,124.0,,True
1759743277.101,2025-10-06 10:34:37.100,0.092,0.0396,0.8806,4.9771,-0.0763,-1.8397,45.85,124.0,,True
1759743277.217,2025-10-06 10:34:37.216,0.0942,0.022,0.874,-0.3282,0.3664,-3.0382,45.89,124.0,,True
1759743277.333,2025-10-06 10:34:37.332,0.0991,0.0334,0.8711,-0.145,-2.0382,-1.5725,45.85,124.0,,True
1759743277.449,2025-10-06 10:34:37.448,0.0994,0.0093,0.8826,3.145,3.2824,-3.374,45.85,124.0,,True
1759743277.565,2025-10-06 10:34:37.564,0.1099,0.0864,0.7822,-46.1985,9.3893,-6.771,45.75,124.0,,True
1759743277.681,2025-10-06 10:34:37.680,0.0901,0.0154,0.8945,-4.9237,-0.4733,-0.0916,45.75,124.0,,True
1759743277.797,2025-10-06 10:34:37.796,0.0894,-0.0022,0.876,-4.9237,-3.1756,-0.2901,45.75,124.0,,True
1759743277.913,2025-10-06 10:34:37.912,0.1309,0.0586,0.886,21.7863,-4.5344,26.4504,45.85,124.0,,True
1759743278.029,2025-10-06 10:34:38.029,0.1023,-0.0042,0.8691,5.0992,-1.2214,-3.0,45.75,124.0,,True
1759743278.145,2025-10-06 10:34:38.145,0.1042,0.0261,0.8591,7.5725,1.2824,-3.1679,45.89,124.0,,True
1759743278.261,2025-10-06 10:34:38.261,0.1167,0.0127,0.8662,4.0076,0.1603,-2.7939,45.75,124.0,,True
1759743278.377,2025-10-06 10:34:38.377,0.1104,0.0146,0.8752,7.084,5.8702,-5.3664,45.85,124.0,,True
1759743278.493,2025-10-06 10:34:38.493,0.0801,0.0283,0.8699,10.7634,19.145,-6.7481,45.75,124.0,,True
1759743278.609,2025-10-06 10:34:38.609,0.0679,0.0457,0.8787,6.6794,13.1679,-9.9695,45.75,124.0,,True
1759743278.729,2025-10-06 10:34:38.728,0.0403,0.0544,0.8687,-1.2595,3.7252,-6.1908,45.61,124.0,,True
1759743278.845,2025-10-06 10:34:38.845,0.0449,0.04,0.8633,6.3511,-7.8779,2.3969,45.75,124.0,,True
1759743278.961,2025-10-06 10:34:38.961,0.0859,0.0623,0.8994,13.2672,-15.4809,0.229,46.04,124.0,,True
1759743279.077,2025-10-06 10:34:39.077,0.095,0.134,0.8982,46.4122,-23.8473,-0.8779,45.52,124.0,,True
1759743279.193,2025-10-06 10:34:39.193,0.1201,0.1321,0.8186,-23.8015,-16.2366,-3.1985,45.61,124.0,,True
1759743279.309,2025-10-06 10:34:39.308,0.2283,0.1355,0.9417,-24.7023,-34.2137,-4.7176,45.89,124.0,,True
1759743279.425,2025-10-06 10:34:39.424,0.2773,0.0405,0.8118,-19.5725,-30.1145,-6.1298,45.94,124.0,,True
1759743279.541,2025-10-06 10:34:39.540,0.3074,-0.0068,0.7617,-11.3359,-22.855,0.6183,45.89,124.0,,True
1759743279.657,2025-10-06 10:34:39.656,0.3457,-0.0027,0.7642,-3.4733,-1.4198,-5.4733,45.94,124.0,,True
1759743279.773,2025-10-06 10:34:39.772,0.3367,0.0039,0.8074,5.2672,1.8397,-3.145,45.71,124.0,,True
1759743279.889,2025-10-06 10:34:39.888,0.325,0.0098,0.8079,1.8779,4.0229,-3.7863,45.71,124.0,,True
1759743280.005,2025-10-06 10:34:40.004,0.3079,0.0044,0.812,3.5191,0.0458,-3.6641,45.75,124.0,,True
1759743280.121,2025-10-06 10:34:40.120,0.3269,0.0247,0.8259,4.5267,-0.6947,-2.916,45.89,124.0,,True
1759743280.237,2025-10-06 10:34:40.236,0.3296,0.019,0.8242,2.1679,-0.9542,-3.5115,45.75,124.0,,True
1759743280.353,2025-10-06 10:34:40.352,0.3357,0.0176,0.8191,2.313,-2.8244,-2.4351,45.61,124.0,,True
1759743280.469,2025-10-06 10:34:40.468,0.3538,0.0186,0.8213,3.0611,1.6565,-3.1374,45.75,124.0,,True
1759743280.585,2025-10-06 10:34:40.584,0.3298,0.0139,0.8013,3.5725,2.3435,-0.8931,45.75,124.0,,True
1759743280.701,2025-10-06 10:34:40.700,0.3318,0.0137,0.8171,5.5115,0.7786,-2.8855,45.75,124.0,,True
1759743280.817,2025-10-06 10:34:40.816,0.1379,-0.0466,0.2141,78.8779,-27.4962,4.626,45.75,124.0,,True
1759743280.933,2025-10-06 10:34:40.932,-0.1082,-0.9165,-0.125,-204.0305,-12.145,-16.9313,45.89,124.0,,True
1759743281.049,2025-10-06 10:34:41.048,0.1655,0.1467,0.7983,43.4504,5.7328,-12.6031,45.85,124.0,,True
1759743281.165,2025-10-06 10:34:41.164,0.0391,-0.0469,0.8806,35.771,-31.0687,-3.2824,45.89,124.0,,True
1759743281.281,2025-10-06 10:34:41.280,0.0391,0.0083,0.8745,5.3435,-5.0153,-2.3282,45.71,124.0,,True
1759743281.397,2025-10-06 10:34:41.396,0.0364,0.0027,0.8748,2.4275,1.6031,-2.5649,45.75,124.0,,True
1759743281.513,2025-10-06 10:34:41.512,0.0496,0.012,0.8745,6.145,2.3588,-4.1679,45.89,124.0,,True
1759743281.629,2025-10-06 10:34:41.628,0.0417,0.021,0.8845,4.9542,-3.1985,1.687,45.71,124.0,,True
1759743281.745,2025-10-06 10:34:41.744,0.0396,0.0154,0.8787,1.7023,-2.1985,-2.7481,45.75,124.0,,True
1759743281.861,2025-10-06 10:34:41.860,0.0479,0.0146,0.874,-3.5496,1.9771,-3.4504,45.75,124.0,,True
1759743281.977,2025-10-06 10:34:41.976,0.0647,-0.011,0.8877,-3.8779,13.7481,-2.5649,45.89,124.0,,True
1759743282.093,2025-10-06 10:34:42.092,0.0117,-0.0188,0.8682,4.5115,3.771,-5.1221,45.71,124.0,,True
1759743282.209,2025-10-06 10:34:42.208,-0.0156,0.052,0.9146,-16.1756,8.855,37.2748,45.61,124.0,,True
1759743282.325,2025-10-06 10:34:42.324,-0.0396,-0.0278,0.8962,34.2824,-17.6336,-8.6183,45.89,124.0,,True
1759743282.441,2025-10-06 10:34:42.440,0.0137,0.0911,0.9468,38.1908,9.6183,-17.9313,45.85,124.0,,True
1759743282.557,2025-10-06 10:34:42.556,-0.0164,0.1143,0.9563,-22.3817,-25.0153,-7.916,45.75,124.0,,True
1759743282.673,2025-10-06 10:34:42.672,0.0786,0.0554,0.8489,-27.3282,-44.9466,-0.6794,45.75,124.0,,True
1759743282.789,2025-10-06 10:34:42.788,0.1946,0.0107,0.8105,-14.916,-40.7786,-5.7405,45.89,124.0,,True
1759743282.905,2025-10-06 10:34:42.904,0.2649,-0.033,0.8018,-9.7099,-25.6031,-0.0611,45.89,124.0,,True
1759743283.021,2025-10-06 10:34:43.020,0.3379,-0.0291,0.8,0.229,-19.3588,1.7481,45.75,124.0,,True
1759743283.137,2025-10-06 10:34:43.136,0.3682,-0.053,0.7827,-2.6336,-22.0916,2.7176,45.75,124.0,,True
1759743283.253,2025-10-06 10:34:43.252,0.3848,-0.0496,0.7471,2.6718,-12.9237,1.9084,45.61,124.0,,True
1759743283.369,2025-10-06 10:34:43.368,-0.0237,-0.1318,-0.1721,111.6107,2.2901,-43.8931,45.75,124.0,,True
1759743283.485,2025-10-06 10:34:43.484,-0.2952,-0.6917,1.1504,-164.9924,123.0,-22.313,45.75,124.0,,True
1759743283.601,2025-10-06 10:34:43.600,0.1675,0.0608,0.7224,58.5649,15.9389,-6.0153,45.71,124.0,,True
1759743283.717,2025-10-06 10:34:43.716,0.0879,-0.0691,0.8679,32.4885,-9.6336,-2.9313,45.75,124.0,,True
1759743283.833,2025-10-06 10:34:43.832,0.0735,-0.0212,0.8687,1.687,-1.4809,-0.5038,45.71,124.0,,True
1759743283.949,2025-10-06 10:34:43.948,0.103,-0.0601,0.8723,1.7481,-1.7099,-3.1603,45.85,124.0,,True
1759743284.065,2025-10-06 10:34:44.064,0.0906,-0.03,0.8672,3.4962,-2.771,-3.8626,45.71,124.0,,True
1759743284.181,2025-10-06 10:34:44.180,0.1028,-0.0376,0.876,-1.5878,0.2901,-0.2061,45.75,124.0,,True
1759743284.297,2025-10-06 10:34:44.296,0.1057,-0.052,0.8694,5.626,-0.4809,-1.9847,45.89,124.0,,True
1759743284.413,2025-10-06 10:34:44.412,0.116,-0.0425,0.8799,-0.4962,-1.8855,-3.1527,45.75,124.0,,True
1759743284.529,2025-10-06 10:34:44.528,0.1079,-0.0232,0.8792,3.9389,-1.0611,-1.1221,45.61,124.0,,True
1759743284.645,2025-10-06 10:34:44.644,0.0864,-0.0288,0.8728,10.1985,-5.1221,-1.1756,45.85,124.0,,True
1759743284.761,2025-10-06 10:34:44.760,0.105,-0.042,0.9404,3.9695,10.7328,2.2748,45.85,124.0,,True
1759743284.877,2025-10-06 10:34:44.876,0.0774,-0.0039,0.925,-11.7023,-7.855,-0.1832,45.61,124.0,,True
1759743284.993,2025-10-06 10:34:44.993,0.123,-0.0776,0.8879,0.0305,-17.0229,-1.8855,45.61,124.0,,True
1759743285.109,2025-10-06 10:34:45.109,0.1479,-0.0706,0.9043,36.5649,-21.3435,-0.6107,45.75,124.0,,True
1759743285.225,2025-10-06 10:34:45.225,0.168,0.0327,0.9153,22.4504,-34.6031,6.1298,45.85,124.0,,True
1759743285.341,2025-10-06 10:34:45.341,0.2664,0.0156,0.9292,-19.7176,-36.2595,-4.5878,45.71,124.0,,True
1759743285.457,2025-10-06 10:34:45.457,0.3196,-0.0593,0.856,-26.6412,-16.0382,-3.8473,45.61,124.0,,True
1759743285.573,2025-10-06 10:34:45.573,0.374,-0.1228,0.7102,-23.4122,-6.0687,-0.9389,45.89,124.0,,True
1759743285.689,2025-10-06 10:34:45.689,0.3513,-0.2234,0.6335,-18.9466,-15.6489,15.7634,45.61,124.0,,True
1759743285.805,2025-10-06 10:34:45.805,0.062,0.0408,-0.1719,96.8015,-11.1985,-45.3664,45.85,124.0,,True
1759743285.921,2025-10-06 10:34:45.921,0.3352,0.0303,1.0342,-92.0382,-23.1374,23.2824,45.71,124.0,,True
1759743286.037,2025-10-06 10:34:46.037,0.0759,-0.0974,0.865,9.855,-0.0916,-0.4351,45.75,124.0,,True
1759743286.153,2025-10-06 10:34:46.153,0.1023,-0.0845,0.877,-1.9313,-6.7481,0.1374,45.61,124.0,,True
1759743286.269,2025-10-06 10:34:46.269,0.0933,-0.0498,0.8796,1.8779,-2.0153,-5.2137,45.61,124.0,,True
1759743286.385,2025-10-06 10:34:46.385,0.1101,-0.1152,0.8311,-19.1908,-19.5878,-6.2748,45.75,124.0,,True
1759743286.501,2025-10-06 10:34:46.501,0.1741,-0.0088,0.9697,-8.2672,-18.1069,4.5191,45.75,124.0,,True
1759743286.618,2025-10-06 10:34:46.617,0.1208,-0.158,0.8979,14.9618,18.2443,-7.9466,45.71,124.0,,True
1759743286.734,2025-10-06 10:34:46.733,0.1897,-0.0935,0.842,5.771,-5.229,-18.1374,45.89,124.0,,True
1759743286.85,2025-10-06 10:34:46.849,0.1389,-0.0725,0.7615,45.7481,35.6565,-12.3206,45.61,124.0,,True
1759743286.966,2025-10-06 10:34:46.965,0.0002,-0.009,0.7812,20.5191,18.9695,-14.5649,45.71,124.0,,True
1759743287.082,2025-10-06 10:34:47.081,0.0513,0.0479,0.8279,11.8855,4.7939,-3.2061,45.75,124.0,,True
1759743287.198,2025-10-06 10:34:47.197,-0.0198,0.012,0.6367,34.5191,32.2977,-17.0534,45.61,124.0,,True
1759743287.314,2025-10-06 10:34:47.313,0.0571,0.1143,0.8853,-28.4885,-2.9618,-11.8931,45.71,124.0,,True
1759743287.43,2025-10-06 10:34:47.429,0.0564,0.0161,0.8774,1.0,-1.9237,-2.4885,45.89,124.0,,True
1759743287.546,2025-10-06 10:34:47.545,0.0598,0.0007,0.8796,2.5115,0.0229,-2.855,45.75,124.0,,True
1759743287.662,2025-10-06 10:34:47.661,0.0642,0.0005,0.8679,2.4733,-0.4275,-2.8244,45.75,124.0,,True
1759743287.778,2025-10-06 10:34:47.777,0.061,0.0029,0.8716,2.5954,-0.0687,-2.7786,45.71,124.0,,True
1759743287.894,2025-10-06 10:34:47.893,0.0591,0.0017,0.8672,2.1221,0.0,-2.9008,45.85,124.0,,True
1759743288.01,2025-10-06 10:34:48.010,0.0593,0.0015,0.8545,2.3282,-0.1374,-2.5191,45.75,124.0,,True
1759743288.126,2025-10-06 10:34:48.126,0.0579,0.0034,0.8721,2.8397,-0.145,-2.7405,45.71,124.0,,True
1759743288.242,2025-10-06 10:34:48.242,0.0613,-0.0027,0.8765,2.6718,0.1832,-2.5573,45.89,124.0,,True
1759743288.358,2025-10-06 10:34:48.358,0.0586,-0.0017,0.8782,2.5725,0.0611,-2.6489,45.75,124.0,,True
1759743288.474,2025-10-06 10:34:48.474,0.0623,0.0046,0.8772,2.3435,-0.0763,-2.6641,45.61,124.0,,True
1759743288.59,2025-10-06 10:34:48.590,0.0569,0.0027,0.8748,2.4809,-0.0382,-2.7099,45.52,124.0,,True
1759743288.706,2025-10-06 10:34:48.706,0.0593,0.0046,0.8779,2.5115,0.0076,-2.8626,45.52,124.0,,True
1759743288.822,2025-10-06 10:34:48.822,0.0623,0.0042,0.8787,2.3053,-0.0687,-2.6947,45.61,124.0,,True
1759743288.939,2025-10-06 10:34:48.938,0.0613,0.0027,0.8718,2.3282,0.1298,-2.6565,45.75,124.0,,True
1759743289.056,2025-10-06 10:34:49.055,0.0613,0.0007,0.874,2.4656,-0.1298,-2.687,45.61,124.0,,True
1759743289.172,2025-10-06 10:34:49.172,0.0571,0.0054,0.8723,2.3206,0.1069,-2.6336,45.61,124.0,,True
1759743289.288,2025-10-06 10:34:49.288,0.0608,-0.0032,0.8811,2.4122,0.0076,-2.8244,45.85,124.0,,True
1759743289.404,2025-10-06 10:34:49.404,0.0623,0.0051,0.8735,2.5725,0.0534,-2.6794,45.75,124.0,,True
1759743289.52,2025-10-06 10:34:49.520,0.0603,0.0024,0.8855,2.6336,-0.0916,-2.6489,45.75,124.0,,True
1759743289.636,2025-10-06 10:34:49.636,0.064,-0.0005,0.8701,2.3435,-0.145,-2.8244,45.57,124.0,,True
1759743289.752,2025-10-06 10:34:49.752,0.0598,0.002,0.8718,2.5954,0.0076,-2.6565,45.75,124.0,,True
1759743289.868,2025-10-06 10:34:49.868,0.0632,0.001,0.8645,2.5115,0.0,-2.7023,45.61,124.0,,True
1759743289.985,2025-10-06 10:34:49.984,0.0574,0.0015,0.8667,2.5496,-0.0458,-2.8397,45.75,124.0,,True
